trial,block,stimId,category,response,accuracy,rt,condition,id,phase
0,0,encourage_A3,a,a,True,2335,1,11118,trainPhase
1,0,encourage_B0,b,a,False,1584,1,11118,trainPhase
2,0,encourage_B3,b,b,True,1099,1,11118,trainPhase
3,0,encourage_B1,b,a,False,1141,1,11118,trainPhase
4,0,encourage_A0,a,a,True,3251,1,11118,trainPhase
5,0,encourage_A2,a,a,True,1254,1,11118,trainPhase
6,0,encourage_B2,b,b,True,1357,1,11118,trainPhase
7,0,encourage_A1,a,a,True,847,1,11118,trainPhase
0,1,encourage_B2,b,b,True,1135,1,11118,trainPhase
1,1,encourage_B0,b,b,True,2424,1,11118,trainPhase
2,1,encourage_B3,b,b,True,768,1,11118,trainPhase
3,1,encourage_A2,a,a,True,689,1,11118,trainPhase
4,1,encourage_A1,a,a,True,785,1,11118,trainPhase
5,1,encourage_A0,a,a,True,670,1,11118,trainPhase
6,1,encourage_A3,a,a,True,725,1,11118,trainPhase
7,1,encourage_B1,b,a,False,824,1,11118,trainPhase
0,2,encourage_B3,b,b,True,945,1,11118,trainPhase
1,2,encourage_A0,a,a,True,1378,1,11118,trainPhase
2,2,encourage_A3,a,a,True,1153,1,11118,trainPhase
3,2,encourage_A2,a,a,True,806,1,11118,trainPhase
4,2,encourage_B0,b,b,True,1244,1,11118,trainPhase
5,2,encourage_A1,a,a,True,1252,1,11118,trainPhase
6,2,encourage_B1,b,b,True,1050,1,11118,trainPhase
7,2,encourage_B2,b,b,True,768,1,11118,trainPhase
0,3,encourage_B2,b,b,True,687,1,11118,trainPhase
1,3,encourage_A3,a,a,True,811,1,11118,trainPhase
2,3,encourage_B1,b,b,True,1321,1,11118,trainPhase
3,3,encourage_B0,b,b,True,988,1,11118,trainPhase
4,3,encourage_A2,a,a,True,1062,1,11118,trainPhase
5,3,encourage_A0,a,a,True,1012,1,11118,trainPhase
6,3,encourage_B3,b,b,True,830,1,11118,trainPhase
0,0,encourage_A3,a,a,True,1158,1,11118,subTestPhase
1,0,encourage_X2,x,a,False,862,1,11118,subTestPhase
2,0,encourage_X1,x,a,False,1081,1,11118,subTestPhase
3,0,encourage_X4,x,a,False,796,1,11118,subTestPhase
4,0,encourage_B0,b,b,True,864,1,11118,subTestPhase
5,0,encourage_A1,a,a,True,872,1,11118,subTestPhase
6,0,encourage_X6,x,a,False,698,1,11118,subTestPhase
7,0,encourage_X3,x,a,False,716,1,11118,subTestPhase
8,0,encourage_B2,b,b,True,839,1,11118,subTestPhase
9,0,encourage_X0,x,a,False,894,1,11118,subTestPhase
10,0,encourage_X5,x,a,False,686,1,11118,subTestPhase
11,0,encourage_B3,b,b,True,782,1,11118,subTestPhase
12,0,encourage_X8,x,a,False,789,1,11118,subTestPhase
13,0,encourage_A2,a,a,True,949,1,11118,subTestPhase
14,0,encourage_A0,a,a,True,847,1,11118,subTestPhase
15,0,encourage_X7,x,a,False,790,1,11118,subTestPhase
16,0,encourage_B1,b,b,True,1184,1,11118,subTestPhase
0,0,encourage_X0,x,a,False,2031,1,11118,testPhase
1,0,encourage_W7,w,a,False,2041,1,11118,testPhase
2,0,encourage_Z8,z,a,False,1612,1,11118,testPhase
3,0,encourage_B2,b,b,True,1106,1,11118,testPhase
4,0,encourage_Z7,z,a,False,1971,1,11118,testPhase
5,0,encourage_X5,x,a,False,750,1,11118,testPhase
6,0,encourage_A0,a,a,True,1018,1,11118,testPhase
7,0,encourage_Y6,y,b,False,1260,1,11118,testPhase
8,0,encourage_Y8,y,b,False,793,1,11118,testPhase
9,0,encourage_Z6,z,a,False,1231,1,11118,testPhase
10,0,encourage_W2,w,a,False,1302,1,11118,testPhase
11,0,encourage_Y3,y,b,False,1382,1,11118,testPhase
12,0,encourage_B0,b,b,True,953,1,11118,testPhase
13,0,encourage_X3,x,a,False,987,1,11118,testPhase
14,0,encourage_W6,w,b,False,2911,1,11118,testPhase
15,0,encourage_X4,x,a,False,766,1,11118,testPhase
16,0,encourage_Y0,y,b,False,876,1,11118,testPhase
17,0,encourage_Y2,y,b,False,638,1,11118,testPhase
18,0,encourage_Z4,z,a,False,1774,1,11118,testPhase
19,0,encourage_Z1,z,a,False,926,1,11118,testPhase
20,0,encourage_Z3,z,a,False,1149,1,11118,testPhase
21,0,encourage_Y1,y,b,False,856,1,11118,testPhase
22,0,encourage_X1,x,a,False,697,1,11118,testPhase
23,0,encourage_Y5,y,b,False,918,1,11118,testPhase
24,0,encourage_X8,x,a,False,470,1,11118,testPhase
25,0,encourage_Y4,y,b,False,718,1,11118,testPhase
26,0,encourage_W3,w,b,False,2412,1,11118,testPhase
27,0,encourage_A1,a,a,True,790,1,11118,testPhase
28,0,encourage_W1,w,a,False,1454,1,11118,testPhase
29,0,encourage_A3,a,a,True,1599,1,11118,testPhase
30,0,encourage_X7,x,a,False,646,1,11118,testPhase
31,0,encourage_W0,w,a,False,1191,1,11118,testPhase
32,0,encourage_Y7,y,b,False,1033,1,11118,testPhase
33,0,encourage_X6,x,a,False,1510,1,11118,testPhase
34,0,encourage_Z5,z,a,False,1414,1,11118,testPhase
35,0,encourage_W8,w,a,False,1222,1,11118,testPhase
36,0,encourage_W4,w,a,False,1062,1,11118,testPhase
37,0,encourage_A2,a,a,True,1030,1,11118,testPhase
38,0,encourage_W5,w,a,False,1829,1,11118,testPhase
39,0,encourage_Z2,z,b,False,2206,1,11118,testPhase
40,0,encourage_B1,b,b,True,821,1,11118,testPhase
41,0,encourage_B3,b,b,True,642,1,11118,testPhase
42,0,encourage_X2,x,a,False,805,1,11118,testPhase
43,0,encourage_Z0,z,a,False,1179,1,11118,testPhase
0,0,encourage_B0,b,b,True,2892,1,11231,trainPhase
1,0,encourage_A1,a,b,False,1421,1,11231,trainPhase
2,0,encourage_A2,a,b,False,1251,1,11231,trainPhase
3,0,encourage_B2,b,a,False,1310,1,11231,trainPhase
4,0,encourage_B1,b,a,False,1743,1,11231,trainPhase
5,0,encourage_A3,a,a,True,4547,1,11231,trainPhase
6,0,encourage_A0,a,b,False,1281,1,11231,trainPhase
7,0,encourage_B3,b,a,False,2333,1,11231,trainPhase
0,1,encourage_A1,a,a,True,1929,1,11231,trainPhase
1,1,encourage_A3,a,a,True,1369,1,11231,trainPhase
2,1,encourage_A0,a,b,False,855,1,11231,trainPhase
3,1,encourage_B2,b,b,True,1508,1,11231,trainPhase
4,1,encourage_B3,b,b,True,852,1,11231,trainPhase
5,1,encourage_B0,b,a,False,4419,1,11231,trainPhase
6,1,encourage_B1,b,a,False,1013,1,11231,trainPhase
7,1,encourage_A2,a,a,True,1117,1,11231,trainPhase
0,2,encourage_A0,a,a,True,1218,1,11231,trainPhase
1,2,encourage_B1,b,b,True,1118,1,11231,trainPhase
2,2,encourage_B3,b,b,True,1198,1,11231,trainPhase
3,2,encourage_A3,a,a,True,1222,1,11231,trainPhase
4,2,encourage_B0,b,a,False,2051,1,11231,trainPhase
5,2,encourage_A2,a,b,False,2023,1,11231,trainPhase
6,2,encourage_A1,a,a,True,1324,1,11231,trainPhase
7,2,encourage_B2,b,b,True,796,1,11231,trainPhase
0,3,encourage_B2,b,b,True,845,1,11231,trainPhase
1,3,encourage_B1,b,b,True,1134,1,11231,trainPhase
2,3,encourage_B0,b,b,True,1511,1,11231,trainPhase
3,3,encourage_A2,a,a,True,957,1,11231,trainPhase
4,3,encourage_A1,a,a,True,1439,1,11231,trainPhase
5,3,encourage_B3,b,b,True,1125,1,11231,trainPhase
6,3,encourage_A3,a,a,True,1194,1,11231,trainPhase
7,3,encourage_A0,a,a,True,1519,1,11231,trainPhase
0,4,encourage_B0,b,b,True,1763,1,11231,trainPhase
1,4,encourage_A0,a,a,True,1233,1,11231,trainPhase
2,4,encourage_B1,b,a,False,1277,1,11231,trainPhase
3,4,encourage_A2,a,a,True,910,1,11231,trainPhase
4,4,encourage_A3,a,a,True,942,1,11231,trainPhase
5,4,encourage_B2,b,b,True,1259,1,11231,trainPhase
6,4,encourage_A1,a,a,True,1067,1,11231,trainPhase
7,4,encourage_B3,b,b,True,855,1,11231,trainPhase
0,5,encourage_B0,b,b,True,1328,1,11231,trainPhase
1,5,encourage_A0,a,a,True,1303,1,11231,trainPhase
2,5,encourage_B3,b,b,True,1062,1,11231,trainPhase
3,5,encourage_A3,a,a,True,1026,1,11231,trainPhase
4,5,encourage_B1,b,a,False,983,1,11231,trainPhase
5,5,encourage_A2,a,a,True,1637,1,11231,trainPhase
6,5,encourage_B2,b,b,True,881,1,11231,trainPhase
7,5,encourage_A1,a,a,True,1232,1,11231,trainPhase
0,6,encourage_B0,b,b,True,693,1,11231,trainPhase
1,6,encourage_A1,a,a,True,1151,1,11231,trainPhase
2,6,encourage_B1,b,b,True,989,1,11231,trainPhase
3,6,encourage_A0,a,a,True,1425,1,11231,trainPhase
4,6,encourage_A3,a,a,True,1838,1,11231,trainPhase
5,6,encourage_B3,b,b,True,926,1,11231,trainPhase
6,6,encourage_A2,a,a,True,1003,1,11231,trainPhase
7,6,encourage_B2,b,a,False,1287,1,11231,trainPhase
0,7,encourage_B2,b,b,True,898,1,11231,trainPhase
1,7,encourage_A3,a,a,True,958,1,11231,trainPhase
2,7,encourage_A0,a,b,False,1107,1,11231,trainPhase
3,7,encourage_A1,a,a,True,1165,1,11231,trainPhase
4,7,encourage_B3,b,b,True,953,1,11231,trainPhase
5,7,encourage_B1,b,a,False,1029,1,11231,trainPhase
6,7,encourage_B0,b,b,True,3235,1,11231,trainPhase
7,7,encourage_A2,a,b,False,1190,1,11231,trainPhase
0,8,encourage_B1,b,b,True,1317,1,11231,trainPhase
1,8,encourage_A0,a,a,True,1182,1,11231,trainPhase
2,8,encourage_A3,a,a,True,899,1,11231,trainPhase
3,8,encourage_A1,a,a,True,1184,1,11231,trainPhase
4,8,encourage_A2,a,b,False,1375,1,11231,trainPhase
5,8,encourage_B3,b,b,True,1205,1,11231,trainPhase
6,8,encourage_B0,b,b,True,1053,1,11231,trainPhase
7,8,encourage_B2,b,b,True,829,1,11231,trainPhase
0,9,encourage_A0,a,a,True,1720,1,11231,trainPhase
1,9,encourage_A1,a,a,True,876,1,11231,trainPhase
2,9,encourage_B0,b,b,True,1508,1,11231,trainPhase
3,9,encourage_A2,a,a,True,1189,1,11231,trainPhase
4,9,encourage_A3,a,a,True,1228,1,11231,trainPhase
5,9,encourage_B3,b,b,True,1164,1,11231,trainPhase
6,9,encourage_B1,b,b,True,2270,1,11231,trainPhase
7,9,encourage_B2,b,b,True,917,1,11231,trainPhase
0,10,encourage_A2,a,a,True,1285,1,11231,trainPhase
1,10,encourage_A0,a,a,True,1871,1,11231,trainPhase
2,10,encourage_B0,b,b,True,1869,1,11231,trainPhase
3,10,encourage_A1,a,a,True,2173,1,11231,trainPhase
0,0,encourage_B2,b,b,True,4515,1,11231,subTestPhase
1,0,encourage_A2,a,a,True,2662,1,11231,subTestPhase
2,0,encourage_X8,x,a,False,1167,1,11231,subTestPhase
3,0,encourage_A0,a,a,True,2172,1,11231,subTestPhase
4,0,encourage_X1,x,a,False,887,1,11231,subTestPhase
5,0,encourage_X7,x,a,False,895,1,11231,subTestPhase
6,0,encourage_B0,b,b,True,1463,1,11231,subTestPhase
7,0,encourage_X6,x,a,False,938,1,11231,subTestPhase
8,0,encourage_B1,b,a,False,1618,1,11231,subTestPhase
9,0,encourage_B3,b,b,True,1003,1,11231,subTestPhase
10,0,encourage_X0,x,a,False,785,1,11231,subTestPhase
11,0,encourage_A1,a,a,True,893,1,11231,subTestPhase
12,0,encourage_X2,x,a,False,874,1,11231,subTestPhase
13,0,encourage_X4,x,a,False,865,1,11231,subTestPhase
14,0,encourage_X3,x,a,False,1001,1,11231,subTestPhase
15,0,encourage_A3,a,a,True,886,1,11231,subTestPhase
16,0,encourage_X5,x,a,False,891,1,11231,subTestPhase
0,0,encourage_X3,x,a,False,1047,1,11231,testPhase
1,0,encourage_A0,a,b,False,1091,1,11231,testPhase
2,0,encourage_W5,w,a,False,1732,1,11231,testPhase
3,0,encourage_Z6,z,a,False,1436,1,11231,testPhase
4,0,encourage_Y0,y,b,False,967,1,11231,testPhase
5,0,encourage_Y4,y,b,False,1014,1,11231,testPhase
6,0,encourage_B0,b,b,True,780,1,11231,testPhase
7,0,encourage_W3,w,a,False,1430,1,11231,testPhase
8,0,encourage_Y8,y,b,False,1130,1,11231,testPhase
9,0,encourage_X2,x,a,False,969,1,11231,testPhase
10,0,encourage_Y3,y,b,False,874,1,11231,testPhase
11,0,encourage_Y7,y,b,False,999,1,11231,testPhase
12,0,encourage_Z0,z,a,False,1356,1,11231,testPhase
13,0,encourage_Z1,z,a,False,996,1,11231,testPhase
14,0,encourage_W4,w,b,False,1084,1,11231,testPhase
15,0,encourage_W6,w,a,False,2513,1,11231,testPhase
16,0,encourage_Z4,z,a,False,998,1,11231,testPhase
17,0,encourage_X6,x,a,False,837,1,11231,testPhase
18,0,encourage_B2,b,b,True,982,1,11231,testPhase
19,0,encourage_Z7,z,a,False,1129,1,11231,testPhase
20,0,encourage_W7,w,a,False,1297,1,11231,testPhase
21,0,encourage_W8,w,a,False,1620,1,11231,testPhase
22,0,encourage_X0,x,b,False,1264,1,11231,testPhase
23,0,encourage_Z8,z,a,False,822,1,11231,testPhase
24,0,encourage_Z3,z,a,False,879,1,11231,testPhase
25,0,encourage_X7,x,a,False,798,1,11231,testPhase
26,0,encourage_W0,w,a,False,1210,1,11231,testPhase
27,0,encourage_Y5,y,b,False,1356,1,11231,testPhase
28,0,encourage_X8,x,a,False,1129,1,11231,testPhase
29,0,encourage_Z5,z,b,False,2263,1,11231,testPhase
30,0,encourage_Y2,y,b,False,849,1,11231,testPhase
31,0,encourage_Z2,z,b,False,3127,1,11231,testPhase
32,0,encourage_A1,a,b,False,1098,1,11231,testPhase
33,0,encourage_A2,a,b,False,4111,1,11231,testPhase
34,0,encourage_Y6,y,b,False,781,1,11231,testPhase
35,0,encourage_A3,a,a,True,1113,1,11231,testPhase
36,0,encourage_B3,b,b,True,1363,1,11231,testPhase
37,0,encourage_W1,w,a,False,1051,1,11231,testPhase
38,0,encourage_B1,b,b,True,1245,1,11231,testPhase
39,0,encourage_Y1,y,b,False,842,1,11231,testPhase
40,0,encourage_W2,w,a,False,967,1,11231,testPhase
41,0,encourage_X5,x,a,False,795,1,11231,testPhase
42,0,encourage_X4,x,a,False,774,1,11231,testPhase
43,0,encourage_X1,x,a,False,845,1,11231,testPhase
0,0,encourage_A0,a,a,True,3600,1,11128,trainPhase
1,0,encourage_B3,b,a,False,4227,1,11128,trainPhase
2,0,encourage_A3,a,b,False,2573,1,11128,trainPhase
3,0,encourage_B2,b,b,True,4317,1,11128,trainPhase
4,0,encourage_A2,a,a,True,1272,1,11128,trainPhase
5,0,encourage_B1,b,b,True,3543,1,11128,trainPhase
6,0,encourage_A1,a,a,True,2782,1,11128,trainPhase
7,0,encourage_B0,b,b,True,1615,1,11128,trainPhase
0,1,encourage_B2,b,b,True,1409,1,11128,trainPhase
1,1,encourage_A1,a,a,True,1242,1,11128,trainPhase
2,1,encourage_A0,a,a,True,1308,1,11128,trainPhase
3,1,encourage_B0,b,b,True,1901,1,11128,trainPhase
4,1,encourage_B1,b,b,True,1674,1,11128,trainPhase
5,1,encourage_B3,b,b,True,1446,1,11128,trainPhase
6,1,encourage_A2,a,a,True,2045,1,11128,trainPhase
7,1,encourage_A3,a,a,True,1013,1,11128,trainPhase
0,2,encourage_B1,b,b,True,2068,1,11128,trainPhase
1,2,encourage_B0,b,b,True,3718,1,11128,trainPhase
0,0,encourage_A2,a,a,True,3072,1,11128,subTestPhase
1,0,encourage_X8,x,a,False,1134,1,11128,subTestPhase
2,0,encourage_B2,b,b,True,1276,1,11128,subTestPhase
3,0,encourage_B3,b,b,True,825,1,11128,subTestPhase
4,0,encourage_B0,b,b,True,1999,1,11128,subTestPhase
5,0,encourage_A1,a,a,True,990,1,11128,subTestPhase
6,0,encourage_X0,x,a,False,814,1,11128,subTestPhase
7,0,encourage_X6,x,a,False,909,1,11128,subTestPhase
8,0,encourage_X7,x,a,False,783,1,11128,subTestPhase
9,0,encourage_A0,a,a,True,1813,1,11128,subTestPhase
10,0,encourage_B1,b,b,True,2628,1,11128,subTestPhase
11,0,encourage_X5,x,a,False,943,1,11128,subTestPhase
12,0,encourage_X4,x,a,False,1008,1,11128,subTestPhase
13,0,encourage_X2,x,a,False,856,1,11128,subTestPhase
14,0,encourage_X1,x,a,False,1349,1,11128,subTestPhase
15,0,encourage_X3,x,a,False,1126,1,11128,subTestPhase
16,0,encourage_A3,a,a,True,2429,1,11128,subTestPhase
0,0,encourage_Y4,y,b,False,1062,1,11128,testPhase
1,0,encourage_Y1,y,b,False,755,1,11128,testPhase
2,0,encourage_X8,x,a,False,1246,1,11128,testPhase
3,0,encourage_W8,w,a,False,1545,1,11128,testPhase
4,0,encourage_Y6,y,b,False,1641,1,11128,testPhase
5,0,encourage_Z4,z,a,False,1773,1,11128,testPhase
6,0,encourage_A0,a,a,True,957,1,11128,testPhase
7,0,encourage_Y0,y,b,False,934,1,11128,testPhase
8,0,encourage_A2,a,a,True,1511,1,11128,testPhase
9,0,encourage_X2,x,a,False,946,1,11128,testPhase
10,0,encourage_W1,w,a,False,1384,1,11128,testPhase
11,0,encourage_Z6,z,a,False,1790,1,11128,testPhase
12,0,encourage_B2,b,b,True,1179,1,11128,testPhase
13,0,encourage_W0,w,a,False,1552,1,11128,testPhase
14,0,encourage_W5,w,a,False,1032,1,11128,testPhase
15,0,encourage_W6,w,a,False,11294,1,11128,testPhase
16,0,encourage_Y2,y,b,False,996,1,11128,testPhase
17,0,encourage_Z0,z,a,False,1137,1,11128,testPhase
18,0,encourage_Z7,z,a,False,1576,1,11128,testPhase
19,0,encourage_Y8,y,b,False,1554,1,11128,testPhase
20,0,encourage_Y7,y,b,False,1115,1,11128,testPhase
21,0,encourage_Z8,z,a,False,985,1,11128,testPhase
22,0,encourage_Y5,y,b,False,1341,1,11128,testPhase
23,0,encourage_B3,b,b,True,1179,1,11128,testPhase
24,0,encourage_X7,x,a,False,946,1,11128,testPhase
25,0,encourage_X5,x,a,False,667,1,11128,testPhase
26,0,encourage_A3,a,a,True,978,1,11128,testPhase
27,0,encourage_X0,x,a,False,822,1,11128,testPhase
28,0,encourage_A1,a,a,True,1045,1,11128,testPhase
29,0,encourage_W4,w,a,False,780,1,11128,testPhase
30,0,encourage_Y3,y,b,False,1021,1,11128,testPhase
31,0,encourage_X1,x,a,False,997,1,11128,testPhase
32,0,encourage_B1,b,b,True,41811,1,11128,testPhase
33,0,encourage_X4,x,a,False,1261,1,11128,testPhase
34,0,encourage_Z5,z,b,False,1502,1,11128,testPhase
35,0,encourage_Z1,z,a,False,11850,1,11128,testPhase
36,0,encourage_X6,x,a,False,1268,1,11128,testPhase
37,0,encourage_W2,w,a,False,1264,1,11128,testPhase
38,0,encourage_Z3,z,a,False,4249,1,11128,testPhase
39,0,encourage_X3,x,a,False,1362,1,11128,testPhase
40,0,encourage_Z2,z,a,False,7369,1,11128,testPhase
41,0,encourage_B0,b,b,True,4585,1,11128,testPhase
42,0,encourage_W7,w,a,False,1094,1,11128,testPhase
43,0,encourage_W3,w,a,False,1274,1,11128,testPhase
0,0,encourage_A3,a,b,False,3064,1,11245,trainPhase
1,0,encourage_B1,b,a,False,1772,1,11245,trainPhase
2,0,encourage_B2,b,b,True,1678,1,11245,trainPhase
3,0,encourage_A2,a,a,True,2038,1,11245,trainPhase
4,0,encourage_B3,b,b,True,1496,1,11245,trainPhase
5,0,encourage_A0,a,b,False,1676,1,11245,trainPhase
6,0,encourage_B0,b,b,True,3077,1,11245,trainPhase
7,0,encourage_A1,a,a,True,1080,1,11245,trainPhase
0,1,encourage_B3,b,b,True,2353,1,11245,trainPhase
1,1,encourage_B1,b,a,False,2209,1,11245,trainPhase
2,1,encourage_A3,a,a,True,1479,1,11245,trainPhase
3,1,encourage_A1,a,a,True,1270,1,11245,trainPhase
4,1,encourage_B0,b,b,True,1069,1,11245,trainPhase
5,1,encourage_A0,a,b,False,897,1,11245,trainPhase
6,1,encourage_B2,b,b,True,1282,1,11245,trainPhase
7,1,encourage_A2,a,a,True,1249,1,11245,trainPhase
0,2,encourage_A0,a,b,False,1240,1,11245,trainPhase
1,2,encourage_B1,b,b,True,1572,1,11245,trainPhase
2,2,encourage_A1,a,a,True,2010,1,11245,trainPhase
3,2,encourage_A3,a,a,True,2187,1,11245,trainPhase
4,2,encourage_B2,b,b,True,916,1,11245,trainPhase
5,2,encourage_B0,b,b,True,1477,1,11245,trainPhase
6,2,encourage_B3,b,b,True,1381,1,11245,trainPhase
7,2,encourage_A2,a,a,True,2531,1,11245,trainPhase
0,3,encourage_B3,b,b,True,832,1,11245,trainPhase
1,3,encourage_B2,b,b,True,787,1,11245,trainPhase
2,3,encourage_A3,a,a,True,1493,1,11245,trainPhase
3,3,encourage_A0,a,a,True,1721,1,11245,trainPhase
4,3,encourage_B0,b,b,True,1227,1,11245,trainPhase
5,3,encourage_A1,a,a,True,1481,1,11245,trainPhase
6,3,encourage_A2,a,a,True,1643,1,11245,trainPhase
7,3,encourage_B1,b,b,True,1525,1,11245,trainPhase
0,0,encourage_A2,a,a,True,2837,1,11245,subTestPhase
1,0,encourage_B2,b,b,True,2860,1,11245,subTestPhase
2,0,encourage_X7,x,a,False,1514,1,11245,subTestPhase
3,0,encourage_X5,x,a,False,1460,1,11245,subTestPhase
4,0,encourage_X3,x,a,False,1816,1,11245,subTestPhase
5,0,encourage_A0,a,a,True,10628,1,11245,subTestPhase
6,0,encourage_X6,x,a,False,6305,1,11245,subTestPhase
7,0,encourage_A3,a,a,True,1806,1,11245,subTestPhase
8,0,encourage_B0,b,b,True,22861,1,11245,subTestPhase
9,0,encourage_B1,b,b,True,775,1,11245,subTestPhase
10,0,encourage_X8,x,a,False,1159,1,11245,subTestPhase
11,0,encourage_X0,x,a,False,1789,1,11245,subTestPhase
12,0,encourage_X2,x,a,False,865,1,11245,subTestPhase
13,0,encourage_B3,b,b,True,1603,1,11245,subTestPhase
14,0,encourage_A1,a,a,True,741,1,11245,subTestPhase
15,0,encourage_X4,x,a,False,830,1,11245,subTestPhase
16,0,encourage_X1,x,a,False,748,1,11245,subTestPhase
0,0,encourage_Z2,z,a,False,1686,1,11245,testPhase
1,0,encourage_A3,a,a,True,704,1,11245,testPhase
2,0,encourage_W2,w,b,False,2774,1,11245,testPhase
3,0,encourage_Z1,z,a,False,1248,1,11245,testPhase
4,0,encourage_Y4,y,b,False,1221,1,11245,testPhase
5,0,encourage_W6,w,b,False,2616,1,11245,testPhase
6,0,encourage_X5,x,a,False,2444,1,11245,testPhase
7,0,encourage_Y7,y,b,False,1042,1,11245,testPhase
8,0,encourage_Y6,y,b,False,942,1,11245,testPhase
9,0,encourage_W1,w,b,False,2102,1,11245,testPhase
10,0,encourage_Z5,z,a,False,1129,1,11245,testPhase
11,0,encourage_X4,x,a,False,1156,1,11245,testPhase
12,0,encourage_B0,b,b,True,1053,1,11245,testPhase
13,0,encourage_A1,a,a,True,1976,1,11245,testPhase
14,0,encourage_W5,w,b,False,1344,1,11245,testPhase
15,0,encourage_Z4,z,a,False,1478,1,11245,testPhase
16,0,encourage_W0,w,b,False,1861,1,11245,testPhase
17,0,encourage_Y8,y,b,False,1562,1,11245,testPhase
18,0,encourage_Z3,z,a,False,1156,1,11245,testPhase
19,0,encourage_X7,x,a,False,1303,1,11245,testPhase
20,0,encourage_X1,x,a,False,966,1,11245,testPhase
21,0,encourage_W4,w,b,False,1359,1,11245,testPhase
22,0,encourage_Y0,y,b,False,1398,1,11245,testPhase
23,0,encourage_X2,x,a,False,847,1,11245,testPhase
24,0,encourage_W3,w,a,False,3605,1,11245,testPhase
25,0,encourage_X3,x,a,False,689,1,11245,testPhase
26,0,encourage_W7,w,a,False,766,1,11245,testPhase
27,0,encourage_X0,x,a,False,501,1,11245,testPhase
28,0,encourage_Z0,z,a,False,1126,1,11245,testPhase
29,0,encourage_Y2,y,b,False,1269,1,11245,testPhase
30,0,encourage_A2,a,a,True,957,1,11245,testPhase
31,0,encourage_Z8,z,a,False,782,1,11245,testPhase
32,0,encourage_B3,b,b,True,868,1,11245,testPhase
33,0,encourage_Y3,y,b,False,1286,1,11245,testPhase
34,0,encourage_W8,w,a,False,2527,1,11245,testPhase
35,0,encourage_Z7,z,a,False,1295,1,11245,testPhase
36,0,encourage_Z6,z,a,False,1014,1,11245,testPhase
37,0,encourage_Y1,y,b,False,1006,1,11245,testPhase
38,0,encourage_Y5,y,b,False,1213,1,11245,testPhase
39,0,encourage_A0,a,a,True,1462,1,11245,testPhase
40,0,encourage_X8,x,a,False,591,1,11245,testPhase
41,0,encourage_B2,b,b,True,837,1,11245,testPhase
42,0,encourage_B1,b,b,True,1179,1,11245,testPhase
43,0,encourage_X6,x,a,False,1085,1,11245,testPhase
0,0,encourage_A1,a,a,True,4695,1,11247,trainPhase
1,0,encourage_A0,a,a,True,922,1,11247,trainPhase
2,0,encourage_A2,a,a,True,1496,1,11247,trainPhase
3,0,encourage_B2,b,a,False,988,1,11247,trainPhase
4,0,encourage_B3,b,b,True,1886,1,11247,trainPhase
5,0,encourage_B0,b,a,False,1069,1,11247,trainPhase
6,0,encourage_B1,b,a,False,1885,1,11247,trainPhase
7,0,encourage_A3,a,a,True,1608,1,11247,trainPhase
0,1,encourage_B2,b,b,True,1221,1,11247,trainPhase
1,1,encourage_A3,a,a,True,868,1,11247,trainPhase
2,1,encourage_B3,b,b,True,1242,1,11247,trainPhase
3,1,encourage_A1,a,a,True,1481,1,11247,trainPhase
4,1,encourage_B1,b,b,True,1919,1,11247,trainPhase
5,1,encourage_B0,b,b,True,1258,1,11247,trainPhase
6,1,encourage_A2,a,a,True,1169,1,11247,trainPhase
7,1,encourage_A0,a,a,True,1261,1,11247,trainPhase
0,2,encourage_A0,a,a,True,1712,1,11247,trainPhase
1,2,encourage_B1,b,b,True,1103,1,11247,trainPhase
2,2,encourage_A3,a,a,True,1375,1,11247,trainPhase
3,2,encourage_B0,b,b,True,1041,1,11247,trainPhase
4,2,encourage_A1,a,a,True,814,1,11247,trainPhase
5,2,encourage_A2,a,b,False,763,1,11247,trainPhase
6,2,encourage_B2,b,b,True,1150,1,11247,trainPhase
7,2,encourage_B3,b,b,True,912,1,11247,trainPhase
0,3,encourage_A2,a,a,True,1246,1,11247,trainPhase
1,3,encourage_A3,a,a,True,723,1,11247,trainPhase
2,3,encourage_B2,b,b,True,724,1,11247,trainPhase
3,3,encourage_A0,a,a,True,864,1,11247,trainPhase
4,3,encourage_B3,b,b,True,656,1,11247,trainPhase
5,3,encourage_B0,b,b,True,998,1,11247,trainPhase
6,3,encourage_A1,a,a,True,726,1,11247,trainPhase
7,3,encourage_B1,b,a,False,894,1,11247,trainPhase
0,4,encourage_B1,b,b,True,966,1,11247,trainPhase
1,4,encourage_A3,a,a,True,791,1,11247,trainPhase
2,4,encourage_B2,b,b,True,767,1,11247,trainPhase
3,4,encourage_B3,b,b,True,904,1,11247,trainPhase
4,4,encourage_A2,a,a,True,710,1,11247,trainPhase
5,4,encourage_A0,a,a,True,933,1,11247,trainPhase
6,4,encourage_B0,b,b,True,973,1,11247,trainPhase
7,4,encourage_A1,a,a,True,810,1,11247,trainPhase
0,5,encourage_B0,b,b,True,678,1,11247,trainPhase
1,5,encourage_B1,b,b,True,971,1,11247,trainPhase
2,5,encourage_B2,b,b,True,914,1,11247,trainPhase
3,5,encourage_A0,a,a,True,800,1,11247,trainPhase
4,5,encourage_B3,b,b,True,927,1,11247,trainPhase
5,5,encourage_A1,a,a,True,597,1,11247,trainPhase
6,5,encourage_A3,a,a,True,1351,1,11247,trainPhase
0,0,encourage_A3,a,a,True,2834,1,11247,subTestPhase
1,0,encourage_X8,x,a,False,1029,1,11247,subTestPhase
2,0,encourage_X2,x,a,False,1035,1,11247,subTestPhase
3,0,encourage_X6,x,a,False,1261,1,11247,subTestPhase
4,0,encourage_X0,x,a,False,1730,1,11247,subTestPhase
5,0,encourage_A0,a,a,True,2601,1,11247,subTestPhase
6,0,encourage_B3,b,b,True,976,1,11247,subTestPhase
7,0,encourage_B0,b,b,True,751,1,11247,subTestPhase
8,0,encourage_B1,b,b,True,1339,1,11247,subTestPhase
9,0,encourage_X3,x,a,False,921,1,11247,subTestPhase
10,0,encourage_A1,a,a,True,1035,1,11247,subTestPhase
11,0,encourage_X4,x,a,False,817,1,11247,subTestPhase
12,0,encourage_A2,a,a,True,2111,1,11247,subTestPhase
13,0,encourage_X7,x,a,False,1096,1,11247,subTestPhase
14,0,encourage_B2,b,b,True,770,1,11247,subTestPhase
15,0,encourage_X5,x,a,False,866,1,11247,subTestPhase
16,0,encourage_X1,x,a,False,992,1,11247,subTestPhase
0,0,encourage_Z1,z,b,False,2249,1,11247,testPhase
1,0,encourage_Y3,y,b,False,980,1,11247,testPhase
2,0,encourage_Y8,y,b,False,700,1,11247,testPhase
3,0,encourage_A1,a,a,True,1214,1,11247,testPhase
4,0,encourage_W8,w,a,False,781,1,11247,testPhase
5,0,encourage_Z5,z,a,False,2347,1,11247,testPhase
6,0,encourage_A3,a,a,True,775,1,11247,testPhase
7,0,encourage_Y6,y,b,False,670,1,11247,testPhase
8,0,encourage_B3,b,b,True,470,1,11247,testPhase
9,0,encourage_X0,x,a,False,943,1,11247,testPhase
10,0,encourage_W4,w,a,False,1190,1,11247,testPhase
11,0,encourage_X7,x,a,False,901,1,11247,testPhase
12,0,encourage_Y1,y,b,False,1154,1,11247,testPhase
13,0,encourage_W5,w,a,False,1621,1,11247,testPhase
14,0,encourage_Z6,z,a,False,1564,1,11247,testPhase
15,0,encourage_Z4,z,a,False,808,1,11247,testPhase
16,0,encourage_W6,w,a,False,1225,1,11247,testPhase
17,0,encourage_Z2,z,b,False,1162,1,11247,testPhase
18,0,encourage_A0,a,a,True,925,1,11247,testPhase
19,0,encourage_Y5,y,b,False,681,1,11247,testPhase
20,0,encourage_X8,x,a,False,1063,1,11247,testPhase
21,0,encourage_X6,x,a,False,1013,1,11247,testPhase
22,0,encourage_Y4,y,b,False,455,1,11247,testPhase
23,0,encourage_X3,x,a,False,942,1,11247,testPhase
24,0,encourage_Y2,y,b,False,582,1,11247,testPhase
25,0,encourage_B0,b,b,True,1262,1,11247,testPhase
26,0,encourage_B1,b,b,True,637,1,11247,testPhase
27,0,encourage_Z3,z,a,False,1965,1,11247,testPhase
28,0,encourage_W1,w,a,False,1140,1,11247,testPhase
29,0,encourage_X2,x,a,False,1012,1,11247,testPhase
30,0,encourage_B2,b,b,True,1220,1,11247,testPhase
31,0,encourage_Y0,y,b,False,670,1,11247,testPhase
32,0,encourage_W0,w,b,False,1615,1,11247,testPhase
33,0,encourage_Z7,z,a,False,795,1,11247,testPhase
34,0,encourage_X5,x,a,False,830,1,11247,testPhase
35,0,encourage_Z0,z,b,False,1101,1,11247,testPhase
36,0,encourage_W7,w,a,False,741,1,11247,testPhase
37,0,encourage_A2,a,a,True,1110,1,11247,testPhase
38,0,encourage_W3,w,a,False,1005,1,11247,testPhase
39,0,encourage_Z8,z,a,False,1249,1,11247,testPhase
40,0,encourage_Y7,y,b,False,758,1,11247,testPhase
41,0,encourage_W2,w,a,False,735,1,11247,testPhase
42,0,encourage_X4,x,a,False,990,1,11247,testPhase
43,0,encourage_X1,x,a,False,700,1,11247,testPhase
0,0,encourage_A3,a,b,False,2575,1,11249,trainPhase
1,0,encourage_B2,b,a,False,3766,1,11249,trainPhase
2,0,encourage_B0,b,b,True,2790,1,11249,trainPhase
3,0,encourage_B3,b,b,True,1756,1,11249,trainPhase
4,0,encourage_A2,a,a,True,1039,1,11249,trainPhase
5,0,encourage_A1,a,a,True,2709,1,11249,trainPhase
6,0,encourage_B1,b,a,False,1669,1,11249,trainPhase
7,0,encourage_A0,a,b,False,1305,1,11249,trainPhase
0,1,encourage_A0,a,a,True,1269,1,11249,trainPhase
1,1,encourage_B1,b,b,True,3021,1,11249,trainPhase
2,1,encourage_B0,b,b,True,893,1,11249,trainPhase
3,1,encourage_A2,a,b,False,1198,1,11249,trainPhase
4,1,encourage_A3,a,a,True,2840,1,11249,trainPhase
5,1,encourage_B3,b,b,True,966,1,11249,trainPhase
6,1,encourage_B2,b,b,True,2814,1,11249,trainPhase
7,1,encourage_A1,a,a,True,725,1,11249,trainPhase
0,2,encourage_B1,b,b,True,2341,1,11249,trainPhase
1,2,encourage_A2,a,a,True,934,1,11249,trainPhase
2,2,encourage_A1,a,a,True,1397,1,11249,trainPhase
3,2,encourage_A3,a,a,True,1358,1,11249,trainPhase
4,2,encourage_A0,a,a,True,750,1,11249,trainPhase
5,2,encourage_B2,b,b,True,2878,1,11249,trainPhase
6,2,encourage_B0,b,b,True,1069,1,11249,trainPhase
7,2,encourage_B3,b,b,True,1054,1,11249,trainPhase
0,3,encourage_B2,b,b,True,1385,1,11249,trainPhase
1,3,encourage_B3,b,b,True,622,1,11249,trainPhase
2,3,encourage_B0,b,b,True,718,1,11249,trainPhase
0,0,encourage_X3,x,a,False,1462,1,11249,subTestPhase
1,0,encourage_X1,x,a,False,1174,1,11249,subTestPhase
2,0,encourage_A3,a,a,True,1738,1,11249,subTestPhase
3,0,encourage_X0,x,a,False,1592,1,11249,subTestPhase
4,0,encourage_B3,b,b,True,874,1,11249,subTestPhase
5,0,encourage_A0,a,a,True,1118,1,11249,subTestPhase
6,0,encourage_X8,x,a,False,681,1,11249,subTestPhase
7,0,encourage_A2,a,a,True,1187,1,11249,subTestPhase
8,0,encourage_X6,x,a,False,842,1,11249,subTestPhase
9,0,encourage_X4,x,a,False,753,1,11249,subTestPhase
10,0,encourage_A1,a,a,True,606,1,11249,subTestPhase
11,0,encourage_B0,b,a,False,1169,1,11249,subTestPhase
12,0,encourage_X5,x,a,False,748,1,11249,subTestPhase
13,0,encourage_B1,b,a,False,1207,1,11249,subTestPhase
14,0,encourage_B2,b,b,True,1013,1,11249,subTestPhase
15,0,encourage_X7,x,a,False,1038,1,11249,subTestPhase
16,0,encourage_X2,x,a,False,686,1,11249,subTestPhase
0,0,encourage_Y7,y,b,False,862,1,11249,testPhase
1,0,encourage_X3,x,a,False,885,1,11249,testPhase
2,0,encourage_Y0,y,b,False,622,1,11249,testPhase
3,0,encourage_Y8,y,b,False,1030,1,11249,testPhase
4,0,encourage_Z1,z,b,False,982,1,11249,testPhase
5,0,encourage_X5,x,a,False,634,1,11249,testPhase
6,0,encourage_A0,a,a,True,1438,1,11249,testPhase
7,0,encourage_B3,b,b,True,950,1,11249,testPhase
8,0,encourage_B0,b,b,True,702,1,11249,testPhase
9,0,encourage_A1,a,a,True,741,1,11249,testPhase
10,0,encourage_Z6,z,a,False,2078,1,11249,testPhase
11,0,encourage_Y6,y,b,False,1190,1,11249,testPhase
12,0,encourage_Y1,y,b,False,750,1,11249,testPhase
13,0,encourage_Z2,z,a,False,1698,1,11249,testPhase
14,0,encourage_W0,w,a,False,1231,1,11249,testPhase
15,0,encourage_Y3,y,b,False,4025,1,11249,testPhase
16,0,encourage_Y5,y,b,False,679,1,11249,testPhase
17,0,encourage_W5,w,a,False,709,1,11249,testPhase
18,0,encourage_X8,x,a,False,1118,1,11249,testPhase
19,0,encourage_A2,a,a,True,1606,1,11249,testPhase
20,0,encourage_Z4,z,b,False,921,1,11249,testPhase
21,0,encourage_X0,x,a,False,726,1,11249,testPhase
22,0,encourage_Y4,y,b,False,900,1,11249,testPhase
23,0,encourage_Z0,z,a,False,1293,1,11249,testPhase
24,0,encourage_X1,x,a,False,619,1,11249,testPhase
25,0,encourage_B1,b,a,False,917,1,11249,testPhase
26,0,encourage_W2,w,a,False,1070,1,11249,testPhase
27,0,encourage_X4,x,a,False,596,1,11249,testPhase
28,0,encourage_W7,w,a,False,573,1,11249,testPhase
29,0,encourage_W3,w,a,False,533,1,11249,testPhase
30,0,encourage_W6,w,a,False,469,1,11249,testPhase
31,0,encourage_W1,w,a,False,1046,1,11249,testPhase
32,0,encourage_Z3,z,b,False,725,1,11249,testPhase
33,0,encourage_Y2,y,b,False,855,1,11249,testPhase
34,0,encourage_Z5,z,a,False,825,1,11249,testPhase
35,0,encourage_X7,x,a,False,685,1,11249,testPhase
36,0,encourage_A3,a,a,True,622,1,11249,testPhase
37,0,encourage_W8,w,a,False,824,1,11249,testPhase
38,0,encourage_Z8,z,a,False,741,1,11249,testPhase
39,0,encourage_X2,x,a,False,1190,1,11249,testPhase
40,0,encourage_B2,b,b,True,2956,1,11249,testPhase
41,0,encourage_Z7,z,a,False,933,1,11249,testPhase
42,0,encourage_W4,w,a,False,710,1,11249,testPhase
43,0,encourage_X6,x,a,False,561,1,11249,testPhase
0,0,encourage_A3,a,a,True,2194,1,11251,trainPhase
1,0,encourage_B3,b,a,False,1912,1,11251,trainPhase
2,0,encourage_B0,b,b,True,3218,1,11251,trainPhase
3,0,encourage_B2,b,b,True,1404,1,11251,trainPhase
4,0,encourage_A2,a,a,True,1257,1,11251,trainPhase
5,0,encourage_B1,b,b,True,1187,1,11251,trainPhase
6,0,encourage_A1,a,b,False,2422,1,11251,trainPhase
7,0,encourage_A0,a,a,True,1719,1,11251,trainPhase
0,1,encourage_A2,a,a,True,1627,1,11251,trainPhase
1,1,encourage_A3,a,a,True,1217,1,11251,trainPhase
2,1,encourage_B0,b,b,True,1260,1,11251,trainPhase
3,1,encourage_B1,b,b,True,1257,1,11251,trainPhase
4,1,encourage_B3,b,b,True,1044,1,11251,trainPhase
5,1,encourage_A1,a,a,True,1607,1,11251,trainPhase
6,1,encourage_B2,b,b,True,1447,1,11251,trainPhase
7,1,encourage_A0,a,a,True,1258,1,11251,trainPhase
0,2,encourage_B3,b,b,True,1585,1,11251,trainPhase
1,2,encourage_A3,a,a,True,1022,1,11251,trainPhase
2,2,encourage_A1,a,a,True,1883,1,11251,trainPhase
3,2,encourage_B1,b,b,True,2830,1,11251,trainPhase
4,2,encourage_A2,a,a,True,1492,1,11251,trainPhase
5,2,encourage_A0,a,a,True,1037,1,11251,trainPhase
0,0,encourage_X4,x,a,False,1862,1,11251,subTestPhase
1,0,encourage_B0,b,b,True,1070,1,11251,subTestPhase
2,0,encourage_A2,a,a,True,1380,1,11251,subTestPhase
3,0,encourage_X0,x,a,False,967,1,11251,subTestPhase
4,0,encourage_X2,x,a,False,761,1,11251,subTestPhase
5,0,encourage_X8,x,a,False,946,1,11251,subTestPhase
6,0,encourage_B1,b,b,True,1060,1,11251,subTestPhase
7,0,encourage_A3,a,a,True,836,1,11251,subTestPhase
8,0,encourage_B3,b,b,True,888,1,11251,subTestPhase
9,0,encourage_X1,x,a,False,838,1,11251,subTestPhase
10,0,encourage_X7,x,a,False,806,1,11251,subTestPhase
11,0,encourage_X3,x,a,False,606,1,11251,subTestPhase
12,0,encourage_X5,x,a,False,518,1,11251,subTestPhase
13,0,encourage_A0,a,a,True,1356,1,11251,subTestPhase
14,0,encourage_X6,x,a,False,1357,1,11251,subTestPhase
15,0,encourage_B2,b,b,True,829,1,11251,subTestPhase
16,0,encourage_A1,a,a,True,774,1,11251,subTestPhase
0,0,encourage_Z1,z,b,False,2165,1,11251,testPhase
1,0,encourage_Y4,y,b,False,10983,1,11251,testPhase
2,0,encourage_W1,w,a,False,1561,1,11251,testPhase
3,0,encourage_Y8,y,b,False,1030,1,11251,testPhase
4,0,encourage_Y0,y,b,False,1253,1,11251,testPhase
5,0,encourage_X0,x,a,False,883,1,11251,testPhase
6,0,encourage_Y5,y,b,False,1127,1,11251,testPhase
7,0,encourage_X5,x,a,False,920,1,11251,testPhase
8,0,encourage_W4,w,a,False,914,1,11251,testPhase
9,0,encourage_Y3,y,b,False,782,1,11251,testPhase
10,0,encourage_X6,x,a,False,801,1,11251,testPhase
11,0,encourage_Z7,z,a,False,4603,1,11251,testPhase
12,0,encourage_Z3,z,a,False,2014,1,11251,testPhase
13,0,encourage_Y6,y,b,False,684,1,11251,testPhase
14,0,encourage_X8,x,a,False,1327,1,11251,testPhase
15,0,encourage_W5,w,a,False,1315,1,11251,testPhase
16,0,encourage_A1,a,a,True,735,1,11251,testPhase
17,0,encourage_A3,a,a,True,1494,1,11251,testPhase
18,0,encourage_X2,x,a,False,761,1,11251,testPhase
19,0,encourage_B2,b,b,True,1405,1,11251,testPhase
20,0,encourage_W6,w,a,False,886,1,11251,testPhase
21,0,encourage_W8,w,a,False,612,1,11251,testPhase
22,0,encourage_W2,w,a,False,390,1,11251,testPhase
23,0,encourage_X1,x,a,False,446,1,11251,testPhase
24,0,encourage_X4,x,a,False,470,1,11251,testPhase
25,0,encourage_A2,a,a,True,1686,1,11251,testPhase
26,0,encourage_W7,w,a,False,2406,1,11251,testPhase
27,0,encourage_B1,b,b,True,1397,1,11251,testPhase
28,0,encourage_Z6,z,a,False,918,1,11251,testPhase
29,0,encourage_Z5,z,a,False,731,1,11251,testPhase
30,0,encourage_X3,x,a,False,847,1,11251,testPhase
31,0,encourage_W3,w,a,False,1792,1,11251,testPhase
32,0,encourage_A0,a,a,True,633,1,11251,testPhase
33,0,encourage_B3,b,b,True,1038,1,11251,testPhase
34,0,encourage_Z8,z,a,False,1114,1,11251,testPhase
35,0,encourage_W0,w,a,False,1227,1,11251,testPhase
36,0,encourage_Z2,z,b,False,1598,1,11251,testPhase
37,0,encourage_Y1,y,b,False,1206,1,11251,testPhase
38,0,encourage_Y7,y,b,False,507,1,11251,testPhase
39,0,encourage_Y2,y,b,False,1262,1,11251,testPhase
40,0,encourage_Z0,z,b,False,5533,1,11251,testPhase
41,0,encourage_Z4,z,b,False,28389,1,11251,testPhase
42,0,encourage_B0,b,b,True,3285,1,11251,testPhase
43,0,encourage_X7,x,a,False,691,1,11251,testPhase
0,0,encourage_A0,a,b,False,1740,1,11253,trainPhase
1,0,encourage_A1,a,a,True,1438,1,11253,trainPhase
2,0,encourage_B0,b,a,False,1100,1,11253,trainPhase
3,0,encourage_A3,a,b,False,1253,1,11253,trainPhase
4,0,encourage_B3,b,b,True,3013,1,11253,trainPhase
5,0,encourage_A2,a,a,True,1109,1,11253,trainPhase
6,0,encourage_B1,b,b,True,1669,1,11253,trainPhase
7,0,encourage_B2,b,b,True,1222,1,11253,trainPhase
0,1,encourage_B3,b,b,True,895,1,11253,trainPhase
1,1,encourage_A0,a,a,True,1213,1,11253,trainPhase
2,1,encourage_B2,b,b,True,846,1,11253,trainPhase
3,1,encourage_A1,a,b,False,1706,1,11253,trainPhase
4,1,encourage_B1,b,b,True,2629,1,11253,trainPhase
5,1,encourage_A3,a,a,True,1022,1,11253,trainPhase
6,1,encourage_B0,b,b,True,1541,1,11253,trainPhase
7,1,encourage_A2,a,a,True,1875,1,11253,trainPhase
0,2,encourage_A1,a,a,True,2078,1,11253,trainPhase
1,2,encourage_B3,b,b,True,1053,1,11253,trainPhase
2,2,encourage_B2,b,b,True,1047,1,11253,trainPhase
3,2,encourage_A3,a,a,True,1837,1,11253,trainPhase
4,2,encourage_B0,b,b,True,1078,1,11253,trainPhase
5,2,encourage_A0,a,a,True,1125,1,11253,trainPhase
6,2,encourage_A2,a,a,True,1077,1,11253,trainPhase
7,2,encourage_B1,b,b,True,1111,1,11253,trainPhase
0,3,encourage_B0,b,b,True,1302,1,11253,trainPhase
1,3,encourage_B1,b,b,True,1245,1,11253,trainPhase
2,3,encourage_A3,a,a,True,1341,1,11253,trainPhase
0,0,encourage_B1,b,b,True,2562,1,11253,subTestPhase
1,0,encourage_A3,a,a,True,975,1,11253,subTestPhase
2,0,encourage_X7,x,a,False,1646,1,11253,subTestPhase
3,0,encourage_X6,x,a,False,790,1,11253,subTestPhase
4,0,encourage_A0,a,a,True,1462,1,11253,subTestPhase
5,0,encourage_X1,x,a,False,1461,1,11253,subTestPhase
6,0,encourage_X8,x,a,False,1702,1,11253,subTestPhase
7,0,encourage_X3,x,a,False,1910,1,11253,subTestPhase
8,0,encourage_X4,x,a,False,806,1,11253,subTestPhase
9,0,encourage_B2,b,b,True,830,1,11253,subTestPhase
10,0,encourage_X5,x,a,False,815,1,11253,subTestPhase
11,0,encourage_B3,b,b,True,662,1,11253,subTestPhase
12,0,encourage_B0,b,b,True,2189,1,11253,subTestPhase
13,0,encourage_A2,a,a,True,733,1,11253,subTestPhase
14,0,encourage_A1,a,b,False,3141,1,11253,subTestPhase
15,0,encourage_X2,x,a,False,958,1,11253,subTestPhase
16,0,encourage_X0,x,a,False,768,1,11253,subTestPhase
0,0,encourage_B1,b,b,True,770,1,11253,testPhase
1,0,encourage_Y7,y,b,False,718,1,11253,testPhase
2,0,encourage_B0,b,b,True,596,1,11253,testPhase
3,0,encourage_X5,x,a,False,1103,1,11253,testPhase
4,0,encourage_Z1,z,a,False,1253,1,11253,testPhase
5,0,encourage_B2,b,b,True,1589,1,11253,testPhase
6,0,encourage_X6,x,a,False,1392,1,11253,testPhase
7,0,encourage_A0,a,a,True,1015,1,11253,testPhase
8,0,encourage_Y6,y,b,False,709,1,11253,testPhase
9,0,encourage_W5,w,b,False,918,1,11253,testPhase
10,0,encourage_X3,x,a,False,740,1,11253,testPhase
11,0,encourage_Z4,z,a,False,854,1,11253,testPhase
12,0,encourage_Y8,y,b,False,1013,1,11253,testPhase
13,0,encourage_Z7,z,a,False,1150,1,11253,testPhase
14,0,encourage_X8,x,a,False,895,1,11253,testPhase
15,0,encourage_W0,w,b,False,841,1,11253,testPhase
16,0,encourage_Z5,z,a,False,1374,1,11253,testPhase
17,0,encourage_Z0,z,a,False,901,1,11253,testPhase
18,0,encourage_Y3,y,b,False,685,1,11253,testPhase
19,0,encourage_W2,w,b,False,757,1,11253,testPhase
20,0,encourage_W3,w,b,False,941,1,11253,testPhase
21,0,encourage_W6,w,b,False,777,1,11253,testPhase
22,0,encourage_W7,w,b,False,1286,1,11253,testPhase
23,0,encourage_Y4,y,b,False,781,1,11253,testPhase
24,0,encourage_W4,w,b,False,397,1,11253,testPhase
25,0,encourage_W1,w,b,False,445,1,11253,testPhase
26,0,encourage_Z6,z,a,False,1205,1,11253,testPhase
27,0,encourage_B3,b,b,True,1302,1,11253,testPhase
28,0,encourage_Z3,z,a,False,774,1,11253,testPhase
29,0,encourage_X2,x,a,False,854,1,11253,testPhase
30,0,encourage_A1,a,a,True,895,1,11253,testPhase
31,0,encourage_A2,a,a,True,836,1,11253,testPhase
32,0,encourage_A3,a,a,True,621,1,11253,testPhase
33,0,encourage_X1,x,a,False,931,1,11253,testPhase
34,0,encourage_W8,w,b,False,1438,1,11253,testPhase
35,0,encourage_Y0,y,b,False,684,1,11253,testPhase
36,0,encourage_X0,x,a,False,989,1,11253,testPhase
37,0,encourage_Y2,y,b,False,1022,1,11253,testPhase
38,0,encourage_X4,x,a,False,782,1,11253,testPhase
39,0,encourage_X7,x,a,False,781,1,11253,testPhase
40,0,encourage_Z2,z,a,False,526,1,11253,testPhase
41,0,encourage_Z8,z,a,False,925,1,11253,testPhase
42,0,encourage_Y5,y,b,False,911,1,11253,testPhase
43,0,encourage_Y1,y,b,False,549,1,11253,testPhase
0,0,encourage_B0,b,a,False,2849,1,11255,trainPhase
1,0,encourage_B3,b,b,True,1508,1,11255,trainPhase
2,0,encourage_A0,a,b,False,990,1,11255,trainPhase
3,0,encourage_A1,a,a,True,1507,1,11255,trainPhase
4,0,encourage_A3,a,b,False,2966,1,11255,trainPhase
5,0,encourage_A2,a,a,True,2318,1,11255,trainPhase
6,0,encourage_B2,b,b,True,2745,1,11255,trainPhase
7,0,encourage_B1,b,a,False,1271,1,11255,trainPhase
0,1,encourage_A2,a,a,True,1480,1,11255,trainPhase
1,1,encourage_A0,a,a,True,1075,1,11255,trainPhase
2,1,encourage_A3,a,a,True,3342,1,11255,trainPhase
3,1,encourage_B3,b,b,True,809,1,11255,trainPhase
4,1,encourage_B0,b,b,True,3466,1,11255,trainPhase
5,1,encourage_A1,a,a,True,5422,1,11255,trainPhase
6,1,encourage_B2,b,b,True,1669,1,11255,trainPhase
7,1,encourage_B1,b,a,False,3087,1,11255,trainPhase
0,2,encourage_A3,a,a,True,1063,1,11255,trainPhase
1,2,encourage_B3,b,b,True,907,1,11255,trainPhase
2,2,encourage_A0,a,a,True,990,1,11255,trainPhase
3,2,encourage_A1,a,a,True,899,1,11255,trainPhase
4,2,encourage_B2,b,b,True,1104,1,11255,trainPhase
5,2,encourage_B1,b,a,False,1046,1,11255,trainPhase
6,2,encourage_A2,a,a,True,1090,1,11255,trainPhase
7,2,encourage_B0,b,b,True,1549,1,11255,trainPhase
0,3,encourage_A1,a,a,True,1891,1,11255,trainPhase
1,3,encourage_B2,b,b,True,822,1,11255,trainPhase
2,3,encourage_A0,a,a,True,8650,1,11255,trainPhase
3,3,encourage_B3,b,b,True,852,1,11255,trainPhase
4,3,encourage_A2,a,a,True,3013,1,11255,trainPhase
5,3,encourage_A3,a,a,True,954,1,11255,trainPhase
6,3,encourage_B0,b,b,True,1762,1,11255,trainPhase
7,3,encourage_B1,b,b,True,1419,1,11255,trainPhase
0,4,encourage_B2,b,b,True,3233,1,11255,trainPhase
1,4,encourage_A1,a,a,True,705,1,11255,trainPhase
2,4,encourage_B0,b,b,True,7713,1,11255,trainPhase
3,4,encourage_B3,b,b,True,845,1,11255,trainPhase
4,4,encourage_A3,a,a,True,901,1,11255,trainPhase
0,0,encourage_X1,x,a,False,1288,1,11255,subTestPhase
1,0,encourage_X2,x,a,False,1504,1,11255,subTestPhase
2,0,encourage_X7,x,a,False,733,1,11255,subTestPhase
3,0,encourage_X4,x,a,False,752,1,11255,subTestPhase
4,0,encourage_X6,x,a,False,1061,1,11255,subTestPhase
5,0,encourage_B3,b,b,True,895,1,11255,subTestPhase
6,0,encourage_B1,b,a,False,11484,1,11255,subTestPhase
7,0,encourage_A0,a,a,True,883,1,11255,subTestPhase
8,0,encourage_X3,x,a,False,1237,1,11255,subTestPhase
9,0,encourage_X5,x,a,False,982,1,11255,subTestPhase
10,0,encourage_X0,x,a,False,603,1,11255,subTestPhase
11,0,encourage_B0,b,b,True,1439,1,11255,subTestPhase
12,0,encourage_A2,a,a,True,846,1,11255,subTestPhase
13,0,encourage_X8,x,a,False,677,1,11255,subTestPhase
14,0,encourage_B2,b,b,True,806,1,11255,subTestPhase
15,0,encourage_A3,a,a,True,1174,1,11255,subTestPhase
16,0,encourage_A1,a,a,True,1126,1,11255,subTestPhase
0,0,encourage_Z8,z,a,False,1646,1,11255,testPhase
1,0,encourage_Y4,y,b,False,956,1,11255,testPhase
2,0,encourage_W3,w,a,False,7872,1,11255,testPhase
3,0,encourage_A3,a,a,True,1043,1,11255,testPhase
4,0,encourage_A2,a,a,True,1926,1,11255,testPhase
5,0,encourage_W6,w,a,False,3922,1,11255,testPhase
6,0,encourage_X7,x,a,False,645,1,11255,testPhase
7,0,encourage_W1,w,a,False,620,1,11255,testPhase
8,0,encourage_Z1,z,a,False,2334,1,11255,testPhase
9,0,encourage_W5,w,b,False,902,1,11255,testPhase
10,0,encourage_X0,x,a,False,901,1,11255,testPhase
11,0,encourage_X2,x,a,False,582,1,11255,testPhase
12,0,encourage_Y5,y,b,False,3114,1,11255,testPhase
13,0,encourage_Y6,y,b,False,804,1,11255,testPhase
14,0,encourage_W4,w,a,False,1048,1,11255,testPhase
15,0,encourage_W8,w,a,False,866,1,11255,testPhase
16,0,encourage_Y2,y,b,False,2195,1,11255,testPhase
17,0,encourage_W0,w,a,False,870,1,11255,testPhase
18,0,encourage_Y8,y,b,False,2022,1,11255,testPhase
19,0,encourage_Z5,z,a,False,950,1,11255,testPhase
20,0,encourage_Z7,z,a,False,662,1,11255,testPhase
21,0,encourage_Y3,y,b,False,2438,1,11255,testPhase
22,0,encourage_X3,x,a,False,851,1,11255,testPhase
23,0,encourage_B0,b,b,True,7077,1,11255,testPhase
24,0,encourage_A1,a,a,True,822,1,11255,testPhase
25,0,encourage_X6,x,a,False,758,1,11255,testPhase
26,0,encourage_Y0,y,b,False,709,1,11255,testPhase
27,0,encourage_A0,a,a,True,8358,1,11255,testPhase
28,0,encourage_Z4,z,a,False,998,1,11255,testPhase
29,0,encourage_B1,b,b,True,13736,1,11255,testPhase
30,0,encourage_Z0,z,b,False,865,1,11255,testPhase
31,0,encourage_X8,x,a,False,652,1,11255,testPhase
32,0,encourage_Z6,z,a,False,996,1,11255,testPhase
33,0,encourage_Z2,z,a,False,958,1,11255,testPhase
34,0,encourage_B3,b,b,True,6428,1,11255,testPhase
35,0,encourage_W7,w,a,False,751,1,11255,testPhase
36,0,encourage_Z3,z,a,False,1579,1,11255,testPhase
37,0,encourage_Y1,y,b,False,781,1,11255,testPhase
38,0,encourage_X5,x,a,False,703,1,11255,testPhase
39,0,encourage_W2,w,a,False,666,1,11255,testPhase
40,0,encourage_Y7,y,b,False,1039,1,11255,testPhase
41,0,encourage_X1,x,a,False,677,1,11255,testPhase
42,0,encourage_X4,x,a,False,629,1,11255,testPhase
43,0,encourage_B2,b,b,True,1276,1,11255,testPhase
0,0,encourage_B2,b,a,False,3151,1,11130,trainPhase
1,0,encourage_A2,a,b,False,1788,1,11130,trainPhase
2,0,encourage_B3,b,b,True,4000,1,11130,trainPhase
3,0,encourage_A0,a,b,False,1595,1,11130,trainPhase
4,0,encourage_B1,b,a,False,4169,1,11130,trainPhase
5,0,encourage_B0,b,b,True,1831,1,11130,trainPhase
6,0,encourage_A1,a,a,True,1458,1,11130,trainPhase
7,0,encourage_A3,a,b,False,1414,1,11130,trainPhase
0,1,encourage_A1,a,b,False,2622,1,11130,trainPhase
1,1,encourage_A2,a,a,True,2112,1,11130,trainPhase
2,1,encourage_B2,b,b,True,1429,1,11130,trainPhase
3,1,encourage_B0,b,b,True,1308,1,11130,trainPhase
4,1,encourage_A0,a,a,True,1815,1,11130,trainPhase
5,1,encourage_A3,a,a,True,1548,1,11130,trainPhase
6,1,encourage_B1,b,b,True,1115,1,11130,trainPhase
7,1,encourage_B3,b,b,True,1782,1,11130,trainPhase
0,2,encourage_B1,b,a,False,2149,1,11130,trainPhase
1,2,encourage_A0,a,a,True,911,1,11130,trainPhase
2,2,encourage_A3,a,a,True,1341,1,11130,trainPhase
3,2,encourage_B2,b,b,True,885,1,11130,trainPhase
4,2,encourage_A2,a,a,True,2291,1,11130,trainPhase
5,2,encourage_B0,b,b,True,2581,1,11130,trainPhase
6,2,encourage_A1,a,a,True,1222,1,11130,trainPhase
7,2,encourage_B3,b,b,True,1045,1,11130,trainPhase
0,3,encourage_B3,b,b,True,965,1,11130,trainPhase
1,3,encourage_B2,b,b,True,1269,1,11130,trainPhase
2,3,encourage_A2,a,a,True,1176,1,11130,trainPhase
3,3,encourage_A0,a,a,True,1216,1,11130,trainPhase
4,3,encourage_B0,b,b,True,2424,1,11130,trainPhase
5,3,encourage_B1,b,b,True,901,1,11130,trainPhase
6,3,encourage_A1,a,a,True,1269,1,11130,trainPhase
7,3,encourage_A3,a,a,True,1450,1,11130,trainPhase
0,0,encourage_X5,x,a,False,1510,1,11130,subTestPhase
1,0,encourage_B0,b,b,True,1908,1,11130,subTestPhase
2,0,encourage_X0,x,a,False,857,1,11130,subTestPhase
3,0,encourage_A2,a,a,True,1425,1,11130,subTestPhase
4,0,encourage_B1,b,b,True,1390,1,11130,subTestPhase
5,0,encourage_X4,x,a,False,748,1,11130,subTestPhase
6,0,encourage_A0,a,a,True,1051,1,11130,subTestPhase
7,0,encourage_A3,a,a,True,2332,1,11130,subTestPhase
8,0,encourage_X1,x,a,False,852,1,11130,subTestPhase
9,0,encourage_B3,b,b,True,760,1,11130,subTestPhase
10,0,encourage_B2,b,b,True,700,1,11130,subTestPhase
11,0,encourage_X6,x,a,False,762,1,11130,subTestPhase
12,0,encourage_X7,x,a,False,870,1,11130,subTestPhase
13,0,encourage_X8,x,a,False,845,1,11130,subTestPhase
14,0,encourage_X3,x,a,False,940,1,11130,subTestPhase
15,0,encourage_A1,a,a,True,847,1,11130,subTestPhase
16,0,encourage_X2,x,a,False,663,1,11130,subTestPhase
0,0,encourage_Z8,z,a,False,669,1,11130,testPhase
1,0,encourage_A1,a,a,True,1119,1,11130,testPhase
2,0,encourage_X6,x,a,False,803,1,11130,testPhase
3,0,encourage_Z2,z,a,False,2063,1,11130,testPhase
4,0,encourage_W7,w,a,False,1960,1,11130,testPhase
5,0,encourage_X5,x,a,False,1189,1,11130,testPhase
6,0,encourage_B2,b,b,True,1321,1,11130,testPhase
7,0,encourage_X2,x,a,False,693,1,11130,testPhase
8,0,encourage_Z7,z,a,False,995,1,11130,testPhase
9,0,encourage_X4,x,a,False,643,1,11130,testPhase
10,0,encourage_Y8,y,b,False,892,1,11130,testPhase
11,0,encourage_Y2,y,b,False,762,1,11130,testPhase
12,0,encourage_Y5,y,b,False,672,1,11130,testPhase
13,0,encourage_Z5,z,a,False,685,1,11130,testPhase
14,0,encourage_B3,b,b,True,724,1,11130,testPhase
15,0,encourage_X7,x,a,False,759,1,11130,testPhase
16,0,encourage_Z3,z,a,False,773,1,11130,testPhase
17,0,encourage_A3,a,a,True,669,1,11130,testPhase
18,0,encourage_A0,a,a,True,3583,1,11130,testPhase
19,0,encourage_W0,w,a,False,1907,1,11130,testPhase
20,0,encourage_Z1,z,a,False,927,1,11130,testPhase
21,0,encourage_Y7,y,b,False,937,1,11130,testPhase
22,0,encourage_W3,w,a,False,1374,1,11130,testPhase
23,0,encourage_A2,a,a,True,1301,1,11130,testPhase
24,0,encourage_Y1,y,b,False,837,1,11130,testPhase
25,0,encourage_Z0,z,a,False,843,1,11130,testPhase
26,0,encourage_Y3,y,b,False,740,1,11130,testPhase
27,0,encourage_Y4,y,b,False,958,1,11130,testPhase
28,0,encourage_Y6,y,b,False,637,1,11130,testPhase
29,0,encourage_Z6,z,a,False,1054,1,11130,testPhase
30,0,encourage_W8,w,a,False,1197,1,11130,testPhase
31,0,encourage_Y0,y,b,False,795,1,11130,testPhase
32,0,encourage_W2,w,a,False,1212,1,11130,testPhase
33,0,encourage_X8,x,a,False,989,1,11130,testPhase
34,0,encourage_X1,x,a,False,582,1,11130,testPhase
35,0,encourage_X3,x,a,False,584,1,11130,testPhase
36,0,encourage_W6,w,a,False,1128,1,11130,testPhase
37,0,encourage_B0,b,a,False,1644,1,11130,testPhase
38,0,encourage_W4,w,a,False,1102,1,11130,testPhase
39,0,encourage_Z4,z,a,False,961,1,11130,testPhase
40,0,encourage_W5,w,a,False,1134,1,11130,testPhase
41,0,encourage_B1,b,a,False,2074,1,11130,testPhase
42,0,encourage_X0,x,a,False,712,1,11130,testPhase
43,0,encourage_W1,w,a,False,1207,1,11130,testPhase
0,0,encourage_A3,a,a,True,2907,1,11257,trainPhase
1,0,encourage_A0,a,b,False,1467,1,11257,trainPhase
2,0,encourage_A1,a,a,True,1126,1,11257,trainPhase
3,0,encourage_B3,b,a,False,1006,1,11257,trainPhase
4,0,encourage_B0,b,b,True,1686,1,11257,trainPhase
5,0,encourage_B2,b,b,True,2021,1,11257,trainPhase
6,0,encourage_A2,a,a,True,1366,1,11257,trainPhase
7,0,encourage_B1,b,a,False,1067,1,11257,trainPhase
0,1,encourage_A0,a,b,False,1737,1,11257,trainPhase
1,1,encourage_A1,a,a,True,1052,1,11257,trainPhase
2,1,encourage_B2,b,b,True,1652,1,11257,trainPhase
3,1,encourage_A3,a,a,True,2823,1,11257,trainPhase
4,1,encourage_B0,b,b,True,1480,1,11257,trainPhase
5,1,encourage_B1,b,b,True,1536,1,11257,trainPhase
6,1,encourage_B3,b,a,False,1581,1,11257,trainPhase
7,1,encourage_A2,a,a,True,836,1,11257,trainPhase
0,2,encourage_B2,b,b,True,1053,1,11257,trainPhase
1,2,encourage_A2,a,a,True,1015,1,11257,trainPhase
2,2,encourage_A1,a,b,False,1763,1,11257,trainPhase
3,2,encourage_A0,a,b,False,1462,1,11257,trainPhase
4,2,encourage_B1,b,a,False,1050,1,11257,trainPhase
5,2,encourage_B0,b,b,True,1623,1,11257,trainPhase
6,2,encourage_A3,a,a,True,781,1,11257,trainPhase
7,2,encourage_B3,b,b,True,1189,1,11257,trainPhase
0,3,encourage_B3,b,b,True,1422,1,11257,trainPhase
1,3,encourage_B0,b,a,False,1365,1,11257,trainPhase
2,3,encourage_A2,a,a,True,827,1,11257,trainPhase
3,3,encourage_B1,b,a,False,2471,1,11257,trainPhase
4,3,encourage_A3,a,a,True,840,1,11257,trainPhase
5,3,encourage_A1,a,b,False,1261,1,11257,trainPhase
6,3,encourage_A0,a,a,True,877,1,11257,trainPhase
7,3,encourage_B2,b,a,False,1454,1,11257,trainPhase
0,4,encourage_A1,a,a,True,3119,1,11257,trainPhase
1,4,encourage_B0,b,b,True,1874,1,11257,trainPhase
2,4,encourage_B3,b,b,True,1205,1,11257,trainPhase
3,4,encourage_A3,a,a,True,1208,1,11257,trainPhase
4,4,encourage_B2,b,a,False,3594,1,11257,trainPhase
5,4,encourage_A2,a,a,True,1000,1,11257,trainPhase
6,4,encourage_B1,b,a,False,1218,1,11257,trainPhase
7,4,encourage_A0,a,a,True,742,1,11257,trainPhase
0,5,encourage_B2,b,b,True,890,1,11257,trainPhase
1,5,encourage_B1,b,b,True,1661,1,11257,trainPhase
2,5,encourage_A2,a,a,True,874,1,11257,trainPhase
3,5,encourage_B3,b,b,True,1150,1,11257,trainPhase
4,5,encourage_A1,a,a,True,986,1,11257,trainPhase
5,5,encourage_B0,b,b,True,1686,1,11257,trainPhase
6,5,encourage_A0,a,a,True,907,1,11257,trainPhase
7,5,encourage_A3,a,a,True,922,1,11257,trainPhase
0,6,encourage_A1,a,a,True,832,1,11257,trainPhase
1,6,encourage_A3,a,a,True,1202,1,11257,trainPhase
2,6,encourage_B2,b,b,True,898,1,11257,trainPhase
3,6,encourage_B0,b,b,True,1293,1,11257,trainPhase
4,6,encourage_A2,a,a,True,1037,1,11257,trainPhase
5,6,encourage_A0,a,a,True,946,1,11257,trainPhase
0,0,encourage_A1,a,a,True,1966,1,11257,subTestPhase
1,0,encourage_B0,b,b,True,2203,1,11257,subTestPhase
2,0,encourage_X3,x,a,False,1603,1,11257,subTestPhase
3,0,encourage_B1,b,b,True,2086,1,11257,subTestPhase
4,0,encourage_X4,x,a,False,742,1,11257,subTestPhase
5,0,encourage_X1,x,a,False,782,1,11257,subTestPhase
6,0,encourage_X5,x,a,False,790,1,11257,subTestPhase
7,0,encourage_X2,x,a,False,623,1,11257,subTestPhase
8,0,encourage_A3,a,a,True,983,1,11257,subTestPhase
9,0,encourage_A2,a,a,True,1630,1,11257,subTestPhase
10,0,encourage_X8,x,a,False,850,1,11257,subTestPhase
11,0,encourage_X7,x,a,False,598,1,11257,subTestPhase
12,0,encourage_A0,a,a,True,678,1,11257,subTestPhase
13,0,encourage_B3,b,b,True,925,1,11257,subTestPhase
14,0,encourage_X6,x,a,False,957,1,11257,subTestPhase
15,0,encourage_B2,b,b,True,901,1,11257,subTestPhase
16,0,encourage_X0,x,a,False,902,1,11257,subTestPhase
0,0,encourage_B1,b,b,True,1624,1,11257,testPhase
1,0,encourage_W0,w,a,False,1158,1,11257,testPhase
2,0,encourage_X2,x,a,False,804,1,11257,testPhase
3,0,encourage_Y8,y,b,False,910,1,11257,testPhase
4,0,encourage_X3,x,a,False,751,1,11257,testPhase
5,0,encourage_Z3,z,a,False,1740,1,11257,testPhase
6,0,encourage_A2,a,a,True,1005,1,11257,testPhase
7,0,encourage_W8,w,a,False,950,1,11257,testPhase
8,0,encourage_Z8,z,a,False,1428,1,11257,testPhase
9,0,encourage_X1,x,a,False,757,1,11257,testPhase
10,0,encourage_Z1,z,a,False,1261,1,11257,testPhase
11,0,encourage_Y3,y,b,False,702,1,11257,testPhase
12,0,encourage_Z2,z,a,False,2104,1,11257,testPhase
13,0,encourage_W7,w,a,False,779,1,11257,testPhase
14,0,encourage_W2,w,a,False,654,1,11257,testPhase
15,0,encourage_Y6,y,b,False,1071,1,11257,testPhase
16,0,encourage_Y4,y,b,False,1206,1,11257,testPhase
17,0,encourage_Y2,y,b,False,711,1,11257,testPhase
18,0,encourage_Z7,z,a,False,800,1,11257,testPhase
19,0,encourage_B2,b,b,True,1735,1,11257,testPhase
20,0,encourage_X4,x,a,False,694,1,11257,testPhase
21,0,encourage_W3,w,a,False,678,1,11257,testPhase
22,0,encourage_B3,b,b,True,963,1,11257,testPhase
23,0,encourage_W4,w,a,False,1646,1,11257,testPhase
24,0,encourage_Y7,y,b,False,1471,1,11257,testPhase
25,0,encourage_Y5,y,b,False,1002,1,11257,testPhase
26,0,encourage_Z6,z,a,False,909,1,11257,testPhase
27,0,encourage_Y1,y,b,False,743,1,11257,testPhase
28,0,encourage_Z4,z,a,False,607,1,11257,testPhase
29,0,encourage_X5,x,a,False,854,1,11257,testPhase
30,0,encourage_Y0,y,b,False,1206,1,11257,testPhase
31,0,encourage_X6,x,a,False,718,1,11257,testPhase
32,0,encourage_A1,a,a,True,583,1,11257,testPhase
33,0,encourage_X0,x,a,False,493,1,11257,testPhase
34,0,encourage_W6,w,a,False,462,1,11257,testPhase
35,0,encourage_W5,w,a,False,509,1,11257,testPhase
36,0,encourage_X7,x,a,False,583,1,11257,testPhase
37,0,encourage_A0,a,a,True,614,1,11257,testPhase
38,0,encourage_B0,b,b,True,1805,1,11257,testPhase
39,0,encourage_W1,w,a,False,525,1,11257,testPhase
40,0,encourage_A3,a,b,False,1158,1,11257,testPhase
41,0,encourage_X8,x,a,False,1039,1,11257,testPhase
42,0,encourage_Z0,z,a,False,706,1,11257,testPhase
43,0,encourage_Z5,z,a,False,701,1,11257,testPhase
0,0,encourage_A0,a,a,True,1466,1,11261,trainPhase
1,0,encourage_B0,b,a,False,1858,1,11261,trainPhase
2,0,encourage_A2,a,b,False,1434,1,11261,trainPhase
3,0,encourage_A3,a,b,False,3319,1,11261,trainPhase
4,0,encourage_A1,a,a,True,1001,1,11261,trainPhase
5,0,encourage_B2,b,b,True,1952,1,11261,trainPhase
6,0,encourage_B3,b,b,True,1082,1,11261,trainPhase
7,0,encourage_B1,b,a,False,959,1,11261,trainPhase
0,1,encourage_A1,a,a,True,1013,1,11261,trainPhase
1,1,encourage_A2,a,a,True,984,1,11261,trainPhase
2,1,encourage_B2,b,b,True,993,1,11261,trainPhase
3,1,encourage_B3,b,b,True,774,1,11261,trainPhase
4,1,encourage_B1,b,b,True,1463,1,11261,trainPhase
5,1,encourage_A0,a,b,False,829,1,11261,trainPhase
6,1,encourage_A3,a,a,True,2217,1,11261,trainPhase
7,1,encourage_B0,b,b,True,1697,1,11261,trainPhase
0,2,encourage_B2,b,b,True,1155,1,11261,trainPhase
1,2,encourage_B1,b,b,True,1351,1,11261,trainPhase
2,2,encourage_A2,a,a,True,1005,1,11261,trainPhase
3,2,encourage_A3,a,a,True,892,1,11261,trainPhase
4,2,encourage_A1,a,a,True,1321,1,11261,trainPhase
5,2,encourage_B0,b,b,True,1550,1,11261,trainPhase
6,2,encourage_B3,b,b,True,846,1,11261,trainPhase
7,2,encourage_A0,a,a,True,1457,1,11261,trainPhase
0,3,encourage_A3,a,a,True,1752,1,11261,trainPhase
1,3,encourage_B0,b,b,True,1566,1,11261,trainPhase
2,3,encourage_B3,b,b,True,935,1,11261,trainPhase
3,3,encourage_A0,a,a,True,1141,1,11261,trainPhase
4,3,encourage_A1,a,a,True,2494,1,11261,trainPhase
0,0,encourage_X2,x,a,False,2370,1,11261,subTestPhase
1,0,encourage_X4,x,a,False,1381,1,11261,subTestPhase
2,0,encourage_B1,b,b,True,2181,1,11261,subTestPhase
3,0,encourage_B2,b,b,True,1051,1,11261,subTestPhase
4,0,encourage_B0,b,b,True,1109,1,11261,subTestPhase
5,0,encourage_X8,x,a,False,1174,1,11261,subTestPhase
6,0,encourage_A3,a,a,True,1309,1,11261,subTestPhase
7,0,encourage_X0,x,a,False,1423,1,11261,subTestPhase
8,0,encourage_A1,a,a,True,1355,1,11261,subTestPhase
9,0,encourage_X6,x,a,False,975,1,11261,subTestPhase
10,0,encourage_A2,a,a,True,1006,1,11261,subTestPhase
11,0,encourage_X7,x,a,False,944,1,11261,subTestPhase
12,0,encourage_X5,x,a,False,830,1,11261,subTestPhase
13,0,encourage_X3,x,a,False,1006,1,11261,subTestPhase
14,0,encourage_A0,a,a,True,1531,1,11261,subTestPhase
15,0,encourage_B3,b,b,True,878,1,11261,subTestPhase
16,0,encourage_X1,x,a,False,1064,1,11261,subTestPhase
0,0,encourage_A0,a,a,True,1511,1,11261,testPhase
1,0,encourage_W0,w,b,False,901,1,11261,testPhase
2,0,encourage_Y8,y,b,False,886,1,11261,testPhase
3,0,encourage_Y3,y,b,False,870,1,11261,testPhase
4,0,encourage_Y1,y,b,False,1070,1,11261,testPhase
5,0,encourage_X7,x,a,False,950,1,11261,testPhase
6,0,encourage_X1,x,a,False,809,1,11261,testPhase
7,0,encourage_A3,a,a,True,871,1,11261,testPhase
8,0,encourage_A1,a,a,True,878,1,11261,testPhase
9,0,encourage_Z8,z,a,False,1328,1,11261,testPhase
10,0,encourage_B1,b,a,False,1536,1,11261,testPhase
11,0,encourage_Y6,y,b,False,1156,1,11261,testPhase
12,0,encourage_Y7,y,b,False,989,1,11261,testPhase
13,0,encourage_W3,w,b,False,830,1,11261,testPhase
14,0,encourage_Z0,z,b,False,1639,1,11261,testPhase
15,0,encourage_Y2,y,b,False,950,1,11261,testPhase
16,0,encourage_X8,x,a,False,1087,1,11261,testPhase
17,0,encourage_B2,b,b,True,1718,1,11261,testPhase
18,0,encourage_X0,x,a,False,1142,1,11261,testPhase
19,0,encourage_W7,w,b,False,2613,1,11261,testPhase
20,0,encourage_X4,x,a,False,1766,1,11261,testPhase
21,0,encourage_Y0,y,b,False,942,1,11261,testPhase
22,0,encourage_B0,b,b,True,1403,1,11261,testPhase
23,0,encourage_Z4,z,a,False,1349,1,11261,testPhase
24,0,encourage_W1,w,b,False,1062,1,11261,testPhase
25,0,encourage_Z1,z,b,False,1790,1,11261,testPhase
26,0,encourage_B3,b,b,True,974,1,11261,testPhase
27,0,encourage_X3,x,a,False,1404,1,11261,testPhase
28,0,encourage_Z5,z,a,False,1549,1,11261,testPhase
29,0,encourage_Z2,z,a,False,908,1,11261,testPhase
30,0,encourage_Y5,y,b,False,862,1,11261,testPhase
31,0,encourage_X6,x,a,False,1224,1,11261,testPhase
32,0,encourage_W4,w,b,False,1178,1,11261,testPhase
33,0,encourage_A2,a,b,False,1090,1,11261,testPhase
34,0,encourage_W6,w,b,False,1007,1,11261,testPhase
35,0,encourage_W2,w,b,False,1423,1,11261,testPhase
36,0,encourage_X5,x,a,False,1126,1,11261,testPhase
37,0,encourage_Z7,z,a,False,1252,1,11261,testPhase
38,0,encourage_X2,x,a,False,1012,1,11261,testPhase
39,0,encourage_W8,w,a,False,1178,1,11261,testPhase
40,0,encourage_Z6,z,a,False,979,1,11261,testPhase
41,0,encourage_Y4,y,b,False,990,1,11261,testPhase
42,0,encourage_Z3,z,a,False,1005,1,11261,testPhase
43,0,encourage_W5,w,b,False,986,1,11261,testPhase
0,0,encourage_A3,a,a,True,2488,1,11263,trainPhase
1,0,encourage_A1,a,a,True,4536,1,11263,trainPhase
2,0,encourage_B3,b,b,True,4700,1,11263,trainPhase
3,0,encourage_B0,b,a,False,1954,1,11263,trainPhase
4,0,encourage_A2,a,a,True,8135,1,11263,trainPhase
5,0,encourage_B2,b,b,True,2044,1,11263,trainPhase
6,0,encourage_B1,b,a,False,1545,1,11263,trainPhase
7,0,encourage_A0,a,a,True,1164,1,11263,trainPhase
0,1,encourage_A3,a,a,True,1288,1,11263,trainPhase
1,1,encourage_B2,b,b,True,1638,1,11263,trainPhase
2,1,encourage_B0,b,b,True,2516,1,11263,trainPhase
3,1,encourage_A0,a,a,True,2240,1,11263,trainPhase
4,1,encourage_B1,b,a,False,1122,1,11263,trainPhase
5,1,encourage_A1,a,a,True,997,1,11263,trainPhase
6,1,encourage_A2,a,a,True,1773,1,11263,trainPhase
7,1,encourage_B3,b,b,True,2295,1,11263,trainPhase
0,2,encourage_B0,b,b,True,1491,1,11263,trainPhase
1,2,encourage_A3,a,a,True,1861,1,11263,trainPhase
2,2,encourage_A1,a,a,True,1627,1,11263,trainPhase
3,2,encourage_A2,a,a,True,2528,1,11263,trainPhase
4,2,encourage_B1,b,b,True,1446,1,11263,trainPhase
5,2,encourage_B2,b,b,True,1556,1,11263,trainPhase
6,2,encourage_B3,b,b,True,2176,1,11263,trainPhase
7,2,encourage_A0,a,a,True,957,1,11263,trainPhase
0,3,encourage_B1,b,b,True,3829,1,11263,trainPhase
1,3,encourage_A1,a,a,True,992,1,11263,trainPhase
2,3,encourage_B0,b,b,True,1221,1,11263,trainPhase
3,3,encourage_A2,a,a,True,1505,1,11263,trainPhase
0,0,encourage_B1,b,b,True,1709,1,11263,subTestPhase
1,0,encourage_A3,a,a,True,1154,1,11263,subTestPhase
2,0,encourage_X8,x,b,False,6001,1,11263,subTestPhase
3,0,encourage_B0,b,b,True,2221,1,11263,subTestPhase
4,0,encourage_B2,b,b,True,1726,1,11263,subTestPhase
5,0,encourage_A1,a,a,True,973,1,11263,subTestPhase
6,0,encourage_B3,b,b,True,3601,1,11263,subTestPhase
7,0,encourage_X0,x,b,False,1541,1,11263,subTestPhase
8,0,encourage_X6,x,b,False,1618,1,11263,subTestPhase
9,0,encourage_A0,a,a,True,927,1,11263,subTestPhase
10,0,encourage_A2,a,a,True,4647,1,11263,subTestPhase
11,0,encourage_X3,x,b,False,2073,1,11263,subTestPhase
12,0,encourage_X4,x,b,False,2166,1,11263,subTestPhase
13,0,encourage_X5,x,a,False,1888,1,11263,subTestPhase
14,0,encourage_X1,x,a,False,937,1,11263,subTestPhase
15,0,encourage_X7,x,b,False,1571,1,11263,subTestPhase
16,0,encourage_X2,x,a,False,1154,1,11263,subTestPhase
0,0,encourage_Y1,y,b,False,1282,1,11263,testPhase
1,0,encourage_X8,x,a,False,1318,1,11263,testPhase
2,0,encourage_W5,w,b,False,2953,1,11263,testPhase
3,0,encourage_A2,a,b,False,3734,1,11263,testPhase
4,0,encourage_Y2,y,b,False,1389,1,11263,testPhase
5,0,encourage_W7,w,b,False,2585,1,11263,testPhase
6,0,encourage_B3,b,b,True,1283,1,11263,testPhase
7,0,encourage_X1,x,a,False,1304,1,11263,testPhase
8,0,encourage_W3,w,b,False,2104,1,11263,testPhase
9,0,encourage_X6,x,b,False,1672,1,11263,testPhase
10,0,encourage_W6,w,b,False,1524,1,11263,testPhase
11,0,encourage_Y7,y,b,False,974,1,11263,testPhase
12,0,encourage_W8,w,b,False,1738,1,11263,testPhase
13,0,encourage_Y5,y,b,False,1311,1,11263,testPhase
14,0,encourage_X2,x,a,False,1119,1,11263,testPhase
15,0,encourage_W1,w,b,False,880,1,11263,testPhase
16,0,encourage_Y4,y,b,False,910,1,11263,testPhase
17,0,encourage_A1,a,a,True,1090,1,11263,testPhase
18,0,encourage_A3,a,b,False,1063,1,11263,testPhase
19,0,encourage_Z1,z,a,False,2285,1,11263,testPhase
20,0,encourage_Y0,y,b,False,880,1,11263,testPhase
21,0,encourage_X7,x,b,False,2093,1,11263,testPhase
22,0,encourage_B2,b,b,True,2711,1,11263,testPhase
23,0,encourage_Z8,z,b,False,2839,1,11263,testPhase
24,0,encourage_Y8,y,a,False,1261,1,11263,testPhase
25,0,encourage_Z7,z,b,False,1251,1,11263,testPhase
26,0,encourage_Y3,y,a,False,1287,1,11263,testPhase
27,0,encourage_X0,x,a,False,1080,1,11263,testPhase
28,0,encourage_Z2,z,b,False,984,1,11263,testPhase
29,0,encourage_Z0,z,b,False,13811,1,11263,testPhase
30,0,encourage_A0,a,a,True,2968,1,11263,testPhase
31,0,encourage_X3,x,b,False,1630,1,11263,testPhase
32,0,encourage_X4,x,b,False,1362,1,11263,testPhase
33,0,encourage_W4,w,b,False,1206,1,11263,testPhase
34,0,encourage_W0,w,b,False,708,1,11263,testPhase
35,0,encourage_Y6,y,b,False,963,1,11263,testPhase
36,0,encourage_X5,x,a,False,1150,1,11263,testPhase
37,0,encourage_Z3,z,b,False,2104,1,11263,testPhase
38,0,encourage_Z6,z,b,False,1136,1,11263,testPhase
39,0,encourage_Z4,z,b,False,872,1,11263,testPhase
40,0,encourage_W2,w,b,False,1435,1,11263,testPhase
41,0,encourage_B1,b,a,False,1278,1,11263,testPhase
42,0,encourage_B0,b,a,False,802,1,11263,testPhase
43,0,encourage_Z5,z,b,False,1062,1,11263,testPhase
0,0,encourage_B0,b,a,False,1638,1,11265,trainPhase
1,0,encourage_B1,b,b,True,1597,1,11265,trainPhase
2,0,encourage_A1,a,a,True,1475,1,11265,trainPhase
3,0,encourage_A2,a,b,False,1329,1,11265,trainPhase
4,0,encourage_B2,b,b,True,1984,1,11265,trainPhase
5,0,encourage_A0,a,a,True,1254,1,11265,trainPhase
6,0,encourage_A3,a,a,True,1757,1,11265,trainPhase
7,0,encourage_B3,b,b,True,2356,1,11265,trainPhase
0,1,encourage_A3,a,a,True,1784,1,11265,trainPhase
1,1,encourage_B1,b,b,True,1096,1,11265,trainPhase
2,1,encourage_A1,a,b,False,2575,1,11265,trainPhase
3,1,encourage_B2,b,b,True,2605,1,11265,trainPhase
4,1,encourage_A2,a,a,True,1062,1,11265,trainPhase
5,1,encourage_A0,a,a,True,832,1,11265,trainPhase
6,1,encourage_B3,b,b,True,908,1,11265,trainPhase
7,1,encourage_B0,b,b,True,1695,1,11265,trainPhase
0,2,encourage_B2,b,b,True,1434,1,11265,trainPhase
1,2,encourage_A0,a,a,True,829,1,11265,trainPhase
2,2,encourage_A2,a,a,True,1028,1,11265,trainPhase
3,2,encourage_B0,b,b,True,2546,1,11265,trainPhase
4,2,encourage_A1,a,a,True,836,1,11265,trainPhase
5,2,encourage_B1,b,b,True,1371,1,11265,trainPhase
6,2,encourage_B3,b,b,True,867,1,11265,trainPhase
7,2,encourage_A3,a,a,True,945,1,11265,trainPhase
0,3,encourage_A1,a,a,True,724,1,11265,trainPhase
1,3,encourage_A2,a,a,True,914,1,11265,trainPhase
0,0,encourage_X4,x,a,False,1414,1,11265,subTestPhase
1,0,encourage_X0,x,a,False,1137,1,11265,subTestPhase
2,0,encourage_X2,x,a,False,997,1,11265,subTestPhase
3,0,encourage_X8,x,a,False,753,1,11265,subTestPhase
4,0,encourage_X1,x,a,False,872,1,11265,subTestPhase
5,0,encourage_A2,a,a,True,1010,1,11265,subTestPhase
6,0,encourage_B2,b,b,True,753,1,11265,subTestPhase
7,0,encourage_B0,b,b,True,644,1,11265,subTestPhase
8,0,encourage_X6,x,a,False,864,1,11265,subTestPhase
9,0,encourage_X7,x,a,False,1546,1,11265,subTestPhase
10,0,encourage_A0,a,a,True,683,1,11265,subTestPhase
11,0,encourage_X3,x,a,False,725,1,11265,subTestPhase
12,0,encourage_B1,b,b,True,1456,1,11265,subTestPhase
13,0,encourage_X5,x,a,False,1025,1,11265,subTestPhase
14,0,encourage_A3,a,a,True,1072,1,11265,subTestPhase
15,0,encourage_A1,a,a,True,902,1,11265,subTestPhase
16,0,encourage_B3,b,b,True,766,1,11265,subTestPhase
0,0,encourage_W7,w,a,False,1660,1,11265,testPhase
1,0,encourage_X1,x,a,False,710,1,11265,testPhase
2,0,encourage_Z0,z,a,False,1257,1,11265,testPhase
3,0,encourage_Y3,y,b,False,1027,1,11265,testPhase
4,0,encourage_Z4,z,a,False,1300,1,11265,testPhase
5,0,encourage_A1,a,a,True,1724,1,11265,testPhase
6,0,encourage_W0,w,a,False,1069,1,11265,testPhase
7,0,encourage_B0,b,b,True,1027,1,11265,testPhase
8,0,encourage_A2,a,a,True,1146,1,11265,testPhase
9,0,encourage_X4,x,a,False,2175,1,11265,testPhase
10,0,encourage_Y8,y,b,False,950,1,11265,testPhase
11,0,encourage_Z5,z,a,False,976,1,11265,testPhase
12,0,encourage_W8,w,a,False,1012,1,11265,testPhase
13,0,encourage_W4,w,a,False,855,1,11265,testPhase
14,0,encourage_X2,x,a,False,646,1,11265,testPhase
15,0,encourage_B3,b,b,True,872,1,11265,testPhase
16,0,encourage_X7,x,a,False,818,1,11265,testPhase
17,0,encourage_W3,w,a,False,837,1,11265,testPhase
18,0,encourage_Y6,y,b,False,694,1,11265,testPhase
19,0,encourage_Z3,z,a,False,868,1,11265,testPhase
20,0,encourage_Z2,z,a,False,2138,1,11265,testPhase
21,0,encourage_B2,b,b,True,5253,1,11265,testPhase
22,0,encourage_X8,x,a,False,1029,1,11265,testPhase
23,0,encourage_Y7,y,b,False,720,1,11265,testPhase
24,0,encourage_W2,w,a,False,773,1,11265,testPhase
25,0,encourage_Z7,z,a,False,1260,1,11265,testPhase
26,0,encourage_Y4,y,b,False,1086,1,11265,testPhase
27,0,encourage_X3,x,a,False,2712,1,11265,testPhase
28,0,encourage_Y0,y,b,False,1580,1,11265,testPhase
29,0,encourage_Z8,z,a,False,1243,1,11265,testPhase
30,0,encourage_X6,x,a,False,1013,1,11265,testPhase
31,0,encourage_W1,w,a,False,1073,1,11265,testPhase
32,0,encourage_Z6,z,a,False,1002,1,11265,testPhase
33,0,encourage_X5,x,a,False,893,1,11265,testPhase
34,0,encourage_Y2,y,b,False,926,1,11265,testPhase
35,0,encourage_W5,w,a,False,711,1,11265,testPhase
36,0,encourage_Y1,y,b,False,1269,1,11265,testPhase
37,0,encourage_A3,a,a,True,886,1,11265,testPhase
38,0,encourage_Z1,z,a,False,2233,1,11265,testPhase
39,0,encourage_W6,w,a,False,964,1,11265,testPhase
40,0,encourage_B1,b,a,False,3728,1,11265,testPhase
41,0,encourage_A0,a,a,True,1504,1,11265,testPhase
42,0,encourage_X0,x,a,False,1356,1,11265,testPhase
43,0,encourage_Y5,y,b,False,1107,1,11265,testPhase
0,0,encourage_B3,b,a,False,2835,1,11267,trainPhase
1,0,encourage_B1,b,b,True,2291,1,11267,trainPhase
2,0,encourage_A2,a,b,False,1446,1,11267,trainPhase
3,0,encourage_A1,a,a,True,2925,1,11267,trainPhase
4,0,encourage_A3,a,b,False,1819,1,11267,trainPhase
5,0,encourage_B2,b,b,True,3892,1,11267,trainPhase
6,0,encourage_B0,b,b,True,3145,1,11267,trainPhase
7,0,encourage_A0,a,a,True,1837,1,11267,trainPhase
0,1,encourage_B3,b,b,True,2276,1,11267,trainPhase
1,1,encourage_A1,a,a,True,1067,1,11267,trainPhase
2,1,encourage_A3,a,a,True,1509,1,11267,trainPhase
3,1,encourage_A2,a,a,True,1748,1,11267,trainPhase
4,1,encourage_A0,a,a,True,1285,1,11267,trainPhase
5,1,encourage_B1,b,b,True,2357,1,11267,trainPhase
6,1,encourage_B2,b,b,True,1003,1,11267,trainPhase
7,1,encourage_B0,b,b,True,1073,1,11267,trainPhase
0,2,encourage_A3,a,a,True,2232,1,11267,trainPhase
1,2,encourage_B3,b,b,True,3418,1,11267,trainPhase
2,2,encourage_B2,b,b,True,918,1,11267,trainPhase
3,2,encourage_B1,b,b,True,1670,1,11267,trainPhase
0,0,encourage_A0,a,a,True,1844,1,11267,subTestPhase
1,0,encourage_A1,a,a,True,1317,1,11267,subTestPhase
2,0,encourage_X8,x,a,False,1141,1,11267,subTestPhase
3,0,encourage_X7,x,a,False,804,1,11267,subTestPhase
4,0,encourage_X2,x,a,False,1004,1,11267,subTestPhase
5,0,encourage_X5,x,a,False,581,1,11267,subTestPhase
6,0,encourage_X0,x,a,False,2388,1,11267,subTestPhase
7,0,encourage_B2,b,b,True,1102,1,11267,subTestPhase
8,0,encourage_A2,a,a,True,1365,1,11267,subTestPhase
9,0,encourage_X6,x,a,False,982,1,11267,subTestPhase
10,0,encourage_B0,b,b,True,1233,1,11267,subTestPhase
11,0,encourage_X3,x,a,False,1070,1,11267,subTestPhase
12,0,encourage_X1,x,a,False,710,1,11267,subTestPhase
13,0,encourage_X4,x,a,False,511,1,11267,subTestPhase
14,0,encourage_B3,b,b,True,1245,1,11267,subTestPhase
15,0,encourage_A3,a,a,True,1214,1,11267,subTestPhase
16,0,encourage_B1,b,b,True,856,1,11267,subTestPhase
0,0,encourage_X6,x,a,False,1220,1,11267,testPhase
1,0,encourage_Z6,z,a,False,918,1,11267,testPhase
2,0,encourage_Z4,z,a,False,806,1,11267,testPhase
3,0,encourage_Z1,z,a,False,789,1,11267,testPhase
4,0,encourage_Y4,y,b,False,1918,1,11267,testPhase
5,0,encourage_W1,w,a,False,1038,1,11267,testPhase
6,0,encourage_Z8,z,a,False,877,1,11267,testPhase
7,0,encourage_Y3,y,b,False,806,1,11267,testPhase
8,0,encourage_Y7,y,b,False,1212,1,11267,testPhase
9,0,encourage_A2,a,a,True,3605,1,11267,testPhase
10,0,encourage_W6,w,a,False,2085,1,11267,testPhase
11,0,encourage_X5,x,a,False,634,1,11267,testPhase
12,0,encourage_W7,w,a,False,903,1,11267,testPhase
13,0,encourage_Y8,y,b,False,1038,1,11267,testPhase
14,0,encourage_Y5,y,b,False,542,1,11267,testPhase
15,0,encourage_W5,w,a,False,1173,1,11267,testPhase
16,0,encourage_W4,w,a,False,1126,1,11267,testPhase
17,0,encourage_W2,w,a,False,1030,1,11267,testPhase
18,0,encourage_B1,b,b,True,830,1,11267,testPhase
19,0,encourage_Z5,z,a,False,2109,1,11267,testPhase
20,0,encourage_Z3,z,a,False,709,1,11267,testPhase
21,0,encourage_X7,x,a,False,1100,1,11267,testPhase
22,0,encourage_Y0,y,b,False,694,1,11267,testPhase
23,0,encourage_B0,b,b,True,590,1,11267,testPhase
24,0,encourage_X8,x,a,False,870,1,11267,testPhase
25,0,encourage_Y2,y,b,False,1022,1,11267,testPhase
26,0,encourage_X2,x,a,False,3061,1,11267,testPhase
27,0,encourage_A1,a,a,True,1943,1,11267,testPhase
28,0,encourage_A0,a,a,True,937,1,11267,testPhase
29,0,encourage_Z2,z,b,False,992,1,11267,testPhase
30,0,encourage_X4,x,a,False,1672,1,11267,testPhase
31,0,encourage_Z0,z,a,False,1022,1,11267,testPhase
32,0,encourage_B2,b,b,True,902,1,11267,testPhase
33,0,encourage_Y6,y,b,False,613,1,11267,testPhase
34,0,encourage_W0,w,b,False,341,1,11267,testPhase
35,0,encourage_B3,b,b,True,875,1,11267,testPhase
36,0,encourage_A3,a,a,True,805,1,11267,testPhase
37,0,encourage_Y1,y,b,False,997,1,11267,testPhase
38,0,encourage_W8,w,a,False,839,1,11267,testPhase
39,0,encourage_X1,x,a,False,822,1,11267,testPhase
40,0,encourage_X3,x,a,False,476,1,11267,testPhase
41,0,encourage_X0,x,a,False,438,1,11267,testPhase
42,0,encourage_W3,w,a,False,966,1,11267,testPhase
43,0,encourage_Z7,z,a,False,946,1,11267,testPhase
0,0,encourage_B3,b,a,False,2308,1,11269,trainPhase
1,0,encourage_A3,a,b,False,1447,1,11269,trainPhase
2,0,encourage_A2,a,b,False,2101,1,11269,trainPhase
3,0,encourage_A1,a,b,False,3161,1,11269,trainPhase
4,0,encourage_B2,b,a,False,2934,1,11269,trainPhase
5,0,encourage_B0,b,b,True,1493,1,11269,trainPhase
6,0,encourage_A0,a,a,True,1625,1,11269,trainPhase
7,0,encourage_B1,b,a,False,2459,1,11269,trainPhase
0,1,encourage_A3,a,b,False,1359,1,11269,trainPhase
1,1,encourage_B1,b,b,True,2620,1,11269,trainPhase
2,1,encourage_A1,a,a,True,2107,1,11269,trainPhase
3,1,encourage_B0,b,b,True,2112,1,11269,trainPhase
4,1,encourage_B2,b,b,True,1223,1,11269,trainPhase
5,1,encourage_A0,a,b,False,1498,1,11269,trainPhase
6,1,encourage_A2,a,a,True,1795,1,11269,trainPhase
7,1,encourage_B3,b,b,True,4116,1,11269,trainPhase
0,2,encourage_B2,b,b,True,997,1,11269,trainPhase
1,2,encourage_A2,a,a,True,2606,1,11269,trainPhase
2,2,encourage_A1,a,a,True,1405,1,11269,trainPhase
3,2,encourage_A3,a,a,True,2741,1,11269,trainPhase
4,2,encourage_A0,a,a,True,1198,1,11269,trainPhase
5,2,encourage_B0,b,b,True,1318,1,11269,trainPhase
6,2,encourage_B1,b,b,True,1049,1,11269,trainPhase
7,2,encourage_B3,b,b,True,2060,1,11269,trainPhase
0,3,encourage_B1,b,b,True,1476,1,11269,trainPhase
1,3,encourage_A1,a,a,True,1618,1,11269,trainPhase
2,3,encourage_A2,a,a,True,1389,1,11269,trainPhase
3,3,encourage_B3,b,b,True,798,1,11269,trainPhase
4,3,encourage_A0,a,a,True,1037,1,11269,trainPhase
0,0,encourage_A0,a,a,True,1610,1,11269,subTestPhase
1,0,encourage_X7,x,a,False,2155,1,11269,subTestPhase
2,0,encourage_B0,b,b,True,1101,1,11269,subTestPhase
3,0,encourage_X8,x,a,False,762,1,11269,subTestPhase
4,0,encourage_X4,x,a,False,939,1,11269,subTestPhase
5,0,encourage_A1,a,a,True,1997,1,11269,subTestPhase
6,0,encourage_X1,x,a,False,910,1,11269,subTestPhase
7,0,encourage_B3,b,b,True,949,1,11269,subTestPhase
8,0,encourage_X3,x,a,False,1119,1,11269,subTestPhase
9,0,encourage_X0,x,a,False,613,1,11269,subTestPhase
10,0,encourage_A2,a,a,True,518,1,11269,subTestPhase
11,0,encourage_A3,a,a,True,663,1,11269,subTestPhase
12,0,encourage_X2,x,a,False,784,1,11269,subTestPhase
13,0,encourage_B1,b,b,True,918,1,11269,subTestPhase
14,0,encourage_X6,x,a,False,597,1,11269,subTestPhase
15,0,encourage_B2,b,b,True,845,1,11269,subTestPhase
16,0,encourage_X5,x,a,False,818,1,11269,subTestPhase
0,0,encourage_X6,x,a,False,1605,1,11269,testPhase
1,0,encourage_Y8,y,b,False,1073,1,11269,testPhase
2,0,encourage_Z5,z,a,False,1820,1,11269,testPhase
3,0,encourage_X2,x,a,False,867,1,11269,testPhase
4,0,encourage_B3,b,b,True,1209,1,11269,testPhase
5,0,encourage_Y1,y,b,False,1603,1,11269,testPhase
6,0,encourage_W6,w,a,False,1655,1,11269,testPhase
7,0,encourage_W4,w,a,False,676,1,11269,testPhase
8,0,encourage_X4,x,a,False,656,1,11269,testPhase
9,0,encourage_Y2,y,b,False,1405,1,11269,testPhase
10,0,encourage_W1,w,b,False,944,1,11269,testPhase
11,0,encourage_X8,x,a,False,863,1,11269,testPhase
12,0,encourage_A3,a,a,True,1645,1,11269,testPhase
13,0,encourage_Y7,y,b,False,1751,1,11269,testPhase
14,0,encourage_Y3,y,b,False,1206,1,11269,testPhase
15,0,encourage_Z7,z,a,False,1377,1,11269,testPhase
16,0,encourage_X0,x,a,False,1263,1,11269,testPhase
17,0,encourage_A2,a,a,True,509,1,11269,testPhase
18,0,encourage_W8,w,a,False,525,1,11269,testPhase
19,0,encourage_Z1,z,a,False,1725,1,11269,testPhase
20,0,encourage_Y6,y,b,False,789,1,11269,testPhase
21,0,encourage_W3,w,a,False,787,1,11269,testPhase
22,0,encourage_W7,w,a,False,659,1,11269,testPhase
23,0,encourage_B1,b,a,False,798,1,11269,testPhase
24,0,encourage_X3,x,a,False,573,1,11269,testPhase
25,0,encourage_Z8,z,a,False,492,1,11269,testPhase
26,0,encourage_A1,a,a,True,885,1,11269,testPhase
27,0,encourage_Z2,z,a,False,863,1,11269,testPhase
28,0,encourage_X5,x,a,False,663,1,11269,testPhase
29,0,encourage_W2,w,a,False,7310,1,11269,testPhase
30,0,encourage_Z0,z,a,False,1229,1,11269,testPhase
31,0,encourage_W5,w,a,False,938,1,11269,testPhase
32,0,encourage_Y4,y,b,False,1014,1,11269,testPhase
33,0,encourage_Z4,z,a,False,1053,1,11269,testPhase
34,0,encourage_B2,b,a,False,2557,1,11269,testPhase
35,0,encourage_Z3,z,a,False,1749,1,11269,testPhase
36,0,encourage_Y0,y,b,False,845,1,11269,testPhase
37,0,encourage_B0,b,a,False,1230,1,11269,testPhase
38,0,encourage_X7,x,a,False,606,1,11269,testPhase
39,0,encourage_A0,a,a,True,980,1,11269,testPhase
40,0,encourage_W0,w,a,False,2150,1,11269,testPhase
41,0,encourage_Y5,y,a,False,623,1,11269,testPhase
42,0,encourage_Z6,z,a,False,1293,1,11269,testPhase
43,0,encourage_X1,x,a,False,1005,1,11269,testPhase
0,0,encourage_B0,b,a,False,2945,1,11273,trainPhase
1,0,encourage_A0,a,b,False,1341,1,11273,trainPhase
2,0,encourage_B2,b,b,True,1288,1,11273,trainPhase
3,0,encourage_A3,a,b,False,2331,1,11273,trainPhase
4,0,encourage_B3,b,b,True,1380,1,11273,trainPhase
5,0,encourage_B1,b,b,True,1209,1,11273,trainPhase
6,0,encourage_A1,a,a,True,1387,1,11273,trainPhase
7,0,encourage_A2,a,a,True,1286,1,11273,trainPhase
0,1,encourage_A3,a,a,True,1027,1,11273,trainPhase
1,1,encourage_B0,b,b,True,1221,1,11273,trainPhase
2,1,encourage_B3,b,b,True,983,1,11273,trainPhase
3,1,encourage_A0,a,a,True,1286,1,11273,trainPhase
4,1,encourage_B1,b,b,True,1703,1,11273,trainPhase
5,1,encourage_A1,a,a,True,1166,1,11273,trainPhase
6,1,encourage_B2,b,b,True,1074,1,11273,trainPhase
7,1,encourage_A2,a,a,True,1004,1,11273,trainPhase
0,2,encourage_A3,a,a,True,1076,1,11273,trainPhase
1,2,encourage_B0,b,b,True,1309,1,11273,trainPhase
2,2,encourage_B2,b,b,True,1477,1,11273,trainPhase
0,0,encourage_A0,a,a,True,1654,1,11273,subTestPhase
1,0,encourage_X1,x,a,False,1412,1,11273,subTestPhase
2,0,encourage_X4,x,a,False,831,1,11273,subTestPhase
3,0,encourage_A3,a,a,True,2206,1,11273,subTestPhase
4,0,encourage_X0,x,a,False,2928,1,11273,subTestPhase
5,0,encourage_A1,a,a,True,2097,1,11273,subTestPhase
6,0,encourage_X6,x,a,False,820,1,11273,subTestPhase
7,0,encourage_X2,x,a,False,1299,1,11273,subTestPhase
8,0,encourage_B0,b,b,True,1275,1,11273,subTestPhase
9,0,encourage_B3,b,b,True,857,1,11273,subTestPhase
10,0,encourage_B1,b,b,True,901,1,11273,subTestPhase
11,0,encourage_X8,x,a,False,1130,1,11273,subTestPhase
12,0,encourage_X7,x,a,False,707,1,11273,subTestPhase
13,0,encourage_X5,x,a,False,714,1,11273,subTestPhase
14,0,encourage_B2,b,b,True,903,1,11273,subTestPhase
15,0,encourage_A2,a,a,True,1870,1,11273,subTestPhase
16,0,encourage_X3,x,a,False,2869,1,11273,subTestPhase
0,0,encourage_A2,a,a,True,1590,1,11273,testPhase
1,0,encourage_W8,w,b,False,749,1,11273,testPhase
2,0,encourage_Z6,z,a,False,1309,1,11273,testPhase
3,0,encourage_Y5,y,b,False,1134,1,11273,testPhase
4,0,encourage_X5,x,a,False,1123,1,11273,testPhase
5,0,encourage_Z0,z,a,False,766,1,11273,testPhase
6,0,encourage_X4,x,a,False,785,1,11273,testPhase
7,0,encourage_W4,w,b,False,837,1,11273,testPhase
8,0,encourage_X3,x,a,False,1054,1,11273,testPhase
9,0,encourage_B3,b,b,True,914,1,11273,testPhase
10,0,encourage_X6,x,a,False,864,1,11273,testPhase
11,0,encourage_W1,w,b,False,658,1,11273,testPhase
12,0,encourage_Y2,y,b,False,973,1,11273,testPhase
13,0,encourage_W0,w,b,False,1972,1,11273,testPhase
14,0,encourage_Y3,y,b,False,974,1,11273,testPhase
15,0,encourage_W7,w,b,False,1773,1,11273,testPhase
16,0,encourage_A1,a,a,True,949,1,11273,testPhase
17,0,encourage_X8,x,a,False,878,1,11273,testPhase
18,0,encourage_B0,b,b,True,914,1,11273,testPhase
19,0,encourage_Y1,y,b,False,670,1,11273,testPhase
20,0,encourage_Z5,z,a,False,1549,1,11273,testPhase
21,0,encourage_A0,a,a,True,2015,1,11273,testPhase
22,0,encourage_B2,b,b,True,900,1,11273,testPhase
23,0,encourage_Y8,y,b,False,694,1,11273,testPhase
24,0,encourage_Y7,y,b,False,709,1,11273,testPhase
25,0,encourage_Z1,z,a,False,1475,1,11273,testPhase
26,0,encourage_X0,x,a,False,861,1,11273,testPhase
27,0,encourage_Z4,z,a,False,771,1,11273,testPhase
28,0,encourage_X2,x,a,False,1072,1,11273,testPhase
29,0,encourage_W5,w,a,False,853,1,11273,testPhase
30,0,encourage_B1,b,b,True,2455,1,11273,testPhase
31,0,encourage_X1,x,a,False,765,1,11273,testPhase
32,0,encourage_W3,w,b,False,885,1,11273,testPhase
33,0,encourage_X7,x,a,False,815,1,11273,testPhase
34,0,encourage_Z3,z,a,False,941,1,11273,testPhase
35,0,encourage_Z8,z,a,False,752,1,11273,testPhase
36,0,encourage_Z7,z,a,False,705,1,11273,testPhase
37,0,encourage_W2,w,b,False,1055,1,11273,testPhase
38,0,encourage_Z2,z,a,False,1110,1,11273,testPhase
39,0,encourage_Y6,y,b,False,958,1,11273,testPhase
40,0,encourage_W6,w,b,False,1001,1,11273,testPhase
41,0,encourage_Y0,y,b,False,1200,1,11273,testPhase
42,0,encourage_A3,a,a,True,1150,1,11273,testPhase
43,0,encourage_Y4,y,b,False,889,1,11273,testPhase
0,0,encourage_A2,a,b,False,7112,1,11275,trainPhase
1,0,encourage_A1,a,a,True,1840,1,11275,trainPhase
2,0,encourage_B3,b,a,False,1406,1,11275,trainPhase
3,0,encourage_B0,b,a,False,1419,1,11275,trainPhase
4,0,encourage_A0,a,b,False,2421,1,11275,trainPhase
5,0,encourage_B1,b,b,True,1700,1,11275,trainPhase
6,0,encourage_A3,a,a,True,1363,1,11275,trainPhase
7,0,encourage_B2,b,b,True,1329,1,11275,trainPhase
0,1,encourage_B0,b,b,True,1389,1,11275,trainPhase
1,1,encourage_A2,a,a,True,1022,1,11275,trainPhase
2,1,encourage_A0,a,b,False,1600,1,11275,trainPhase
3,1,encourage_B1,b,a,False,1037,1,11275,trainPhase
4,1,encourage_B3,b,b,True,1507,1,11275,trainPhase
5,1,encourage_B2,b,b,True,1706,1,11275,trainPhase
6,1,encourage_A3,a,a,True,961,1,11275,trainPhase
7,1,encourage_A1,a,a,True,2638,1,11275,trainPhase
0,2,encourage_A2,a,a,True,1001,1,11275,trainPhase
1,2,encourage_B2,b,b,True,962,1,11275,trainPhase
2,2,encourage_B1,b,a,False,2566,1,11275,trainPhase
3,2,encourage_A1,a,a,True,1037,1,11275,trainPhase
4,2,encourage_A0,a,a,True,941,1,11275,trainPhase
5,2,encourage_B0,b,b,True,1774,1,11275,trainPhase
6,2,encourage_A3,a,a,True,1078,1,11275,trainPhase
7,2,encourage_B3,b,b,True,1342,1,11275,trainPhase
0,3,encourage_B2,b,a,False,2860,1,11275,trainPhase
1,3,encourage_B0,b,b,True,1356,1,11275,trainPhase
2,3,encourage_B3,b,b,True,1242,1,11275,trainPhase
3,3,encourage_A3,a,a,True,821,1,11275,trainPhase
4,3,encourage_A0,a,a,True,982,1,11275,trainPhase
5,3,encourage_A1,a,a,True,994,1,11275,trainPhase
6,3,encourage_B1,b,b,True,898,1,11275,trainPhase
7,3,encourage_A2,a,b,False,1741,1,11275,trainPhase
0,4,encourage_B3,b,b,True,1131,1,11275,trainPhase
1,4,encourage_A3,a,a,True,1523,1,11275,trainPhase
2,4,encourage_B2,b,b,True,1496,1,11275,trainPhase
3,4,encourage_A2,a,a,True,1744,1,11275,trainPhase
4,4,encourage_B0,b,b,True,2093,1,11275,trainPhase
5,4,encourage_A1,a,a,True,895,1,11275,trainPhase
6,4,encourage_A0,a,a,True,839,1,11275,trainPhase
7,4,encourage_B1,b,b,True,2137,1,11275,trainPhase
0,5,encourage_B3,b,b,True,1190,1,11275,trainPhase
1,5,encourage_A2,a,a,True,912,1,11275,trainPhase
2,5,encourage_A1,a,a,True,863,1,11275,trainPhase
3,5,encourage_A0,a,a,True,1075,1,11275,trainPhase
4,5,encourage_B1,b,b,True,1030,1,11275,trainPhase
5,5,encourage_B2,b,b,True,1007,1,11275,trainPhase
6,5,encourage_B0,b,b,True,942,1,11275,trainPhase
0,0,encourage_A3,a,a,True,2620,1,11275,subTestPhase
1,0,encourage_X1,x,a,False,2413,1,11275,subTestPhase
2,0,encourage_X6,x,a,False,1177,1,11275,subTestPhase
3,0,encourage_X3,x,a,False,849,1,11275,subTestPhase
4,0,encourage_X8,x,a,False,760,1,11275,subTestPhase
5,0,encourage_B3,b,b,True,1502,1,11275,subTestPhase
6,0,encourage_A2,a,a,True,5254,1,11275,subTestPhase
7,0,encourage_X5,x,a,False,796,1,11275,subTestPhase
8,0,encourage_X4,x,a,False,782,1,11275,subTestPhase
9,0,encourage_A0,a,a,True,2163,1,11275,subTestPhase
10,0,encourage_X7,x,a,False,774,1,11275,subTestPhase
11,0,encourage_B0,b,b,True,982,1,11275,subTestPhase
12,0,encourage_X2,x,a,False,975,1,11275,subTestPhase
13,0,encourage_X0,x,a,False,751,1,11275,subTestPhase
14,0,encourage_B2,b,b,True,894,1,11275,subTestPhase
15,0,encourage_B1,b,b,True,845,1,11275,subTestPhase
16,0,encourage_A1,a,a,True,1414,1,11275,subTestPhase
0,0,encourage_B3,b,b,True,1106,1,11275,testPhase
1,0,encourage_A3,a,a,True,971,1,11275,testPhase
2,0,encourage_Y3,y,b,False,861,1,11275,testPhase
3,0,encourage_W4,w,a,False,2147,1,11275,testPhase
4,0,encourage_Y6,y,b,False,1005,1,11275,testPhase
5,0,encourage_W2,w,a,False,837,1,11275,testPhase
6,0,encourage_Y0,y,b,False,725,1,11275,testPhase
7,0,encourage_Y1,y,b,False,735,1,11275,testPhase
8,0,encourage_Z1,z,a,False,926,1,11275,testPhase
9,0,encourage_B2,b,b,True,931,1,11275,testPhase
10,0,encourage_W6,w,a,False,904,1,11275,testPhase
11,0,encourage_W0,w,a,False,1125,1,11275,testPhase
12,0,encourage_Y5,y,b,False,942,1,11275,testPhase
13,0,encourage_Z8,z,a,False,1119,1,11275,testPhase
14,0,encourage_X8,x,a,False,766,1,11275,testPhase
15,0,encourage_A1,a,a,True,770,1,11275,testPhase
16,0,encourage_Z2,z,a,False,3779,1,11275,testPhase
17,0,encourage_W5,w,a,False,1185,1,11275,testPhase
18,0,encourage_X0,x,a,False,710,1,11275,testPhase
19,0,encourage_X7,x,a,False,646,1,11275,testPhase
20,0,encourage_X1,x,a,False,608,1,11275,testPhase
21,0,encourage_W1,w,b,False,862,1,11275,testPhase
22,0,encourage_Z0,z,a,False,860,1,11275,testPhase
23,0,encourage_A0,a,a,True,778,1,11275,testPhase
24,0,encourage_X6,x,a,False,825,1,11275,testPhase
25,0,encourage_X5,x,a,False,649,1,11275,testPhase
26,0,encourage_Z5,z,a,False,2022,1,11275,testPhase
27,0,encourage_Y8,y,b,False,1187,1,11275,testPhase
28,0,encourage_W8,w,a,False,1856,1,11275,testPhase
29,0,encourage_X3,x,a,False,750,1,11275,testPhase
30,0,encourage_Y4,y,b,False,1040,1,11275,testPhase
31,0,encourage_X4,x,a,False,669,1,11275,testPhase
32,0,encourage_A2,a,a,True,878,1,11275,testPhase
33,0,encourage_B1,b,a,False,746,1,11275,testPhase
34,0,encourage_X2,x,a,False,710,1,11275,testPhase
35,0,encourage_W3,w,a,False,2094,1,11275,testPhase
36,0,encourage_W7,w,a,False,2315,1,11275,testPhase
37,0,encourage_Z3,z,a,False,2076,1,11275,testPhase
38,0,encourage_B0,b,b,True,4483,1,11275,testPhase
39,0,encourage_Z4,z,a,False,726,1,11275,testPhase
40,0,encourage_Z7,z,a,False,786,1,11275,testPhase
41,0,encourage_Z6,z,a,False,572,1,11275,testPhase
42,0,encourage_Y2,y,b,False,1126,1,11275,testPhase
43,0,encourage_Y7,y,b,False,1086,1,11275,testPhase
0,0,encourage_B3,b,a,False,3561,1,11132,trainPhase
1,0,encourage_A0,a,b,False,3724,1,11132,trainPhase
2,0,encourage_B2,b,b,True,2186,1,11132,trainPhase
3,0,encourage_B0,b,b,True,1658,1,11132,trainPhase
4,0,encourage_A1,a,a,True,5239,1,11132,trainPhase
5,0,encourage_A2,a,b,False,13690,1,11132,trainPhase
6,0,encourage_A3,a,b,False,2413,1,11132,trainPhase
7,0,encourage_B1,b,a,False,7774,1,11132,trainPhase
0,1,encourage_B2,b,b,True,3109,1,11132,trainPhase
1,1,encourage_B3,b,b,True,2077,1,11132,trainPhase
2,1,encourage_A2,a,a,True,1373,1,11132,trainPhase
3,1,encourage_B1,b,a,False,1854,1,11132,trainPhase
4,1,encourage_A3,a,b,False,18504,1,11132,trainPhase
5,1,encourage_A1,a,a,True,2485,1,11132,trainPhase
6,1,encourage_A0,a,a,True,3120,1,11132,trainPhase
7,1,encourage_B0,b,b,True,2405,1,11132,trainPhase
0,2,encourage_B1,b,a,False,1725,1,11132,trainPhase
1,2,encourage_B0,b,b,True,1189,1,11132,trainPhase
2,2,encourage_B3,b,b,True,1933,1,11132,trainPhase
3,2,encourage_A1,a,a,True,8661,1,11132,trainPhase
4,2,encourage_B2,b,b,True,3958,1,11132,trainPhase
5,2,encourage_A0,a,a,True,1362,1,11132,trainPhase
6,2,encourage_A2,a,b,False,2517,1,11132,trainPhase
7,2,encourage_A3,a,b,False,5302,1,11132,trainPhase
0,3,encourage_B2,b,b,True,2094,1,11132,trainPhase
1,3,encourage_A2,a,a,True,2270,1,11132,trainPhase
2,3,encourage_A3,a,a,True,2974,1,11132,trainPhase
3,3,encourage_B1,b,b,True,9154,1,11132,trainPhase
4,3,encourage_A1,a,a,True,2278,1,11132,trainPhase
5,3,encourage_B3,b,b,True,2161,1,11132,trainPhase
6,3,encourage_B0,b,b,True,1677,1,11132,trainPhase
7,3,encourage_A0,a,a,True,960,1,11132,trainPhase
0,4,encourage_B3,b,b,True,2875,1,11132,trainPhase
1,4,encourage_A1,a,a,True,1765,1,11132,trainPhase
2,4,encourage_A3,a,a,True,2846,1,11132,trainPhase
3,4,encourage_A2,a,a,True,1488,1,11132,trainPhase
4,4,encourage_A0,a,a,True,2973,1,11132,trainPhase
5,4,encourage_B0,b,b,True,1887,1,11132,trainPhase
6,4,encourage_B1,b,b,True,3358,1,11132,trainPhase
0,0,encourage_A3,a,a,True,8044,1,11132,subTestPhase
1,0,encourage_X2,x,a,False,961,1,11132,subTestPhase
2,0,encourage_X7,x,a,False,1224,1,11132,subTestPhase
3,0,encourage_X3,x,a,False,1685,1,11132,subTestPhase
4,0,encourage_A2,a,b,False,1116,1,11132,subTestPhase
5,0,encourage_A1,a,a,True,901,1,11132,subTestPhase
6,0,encourage_X6,x,a,False,1045,1,11132,subTestPhase
7,0,encourage_B0,b,b,True,1158,1,11132,subTestPhase
8,0,encourage_B1,b,b,True,886,1,11132,subTestPhase
9,0,encourage_X4,x,a,False,901,1,11132,subTestPhase
10,0,encourage_X8,x,a,False,901,1,11132,subTestPhase
11,0,encourage_X5,x,a,False,1037,1,11132,subTestPhase
12,0,encourage_B2,b,b,True,982,1,11132,subTestPhase
13,0,encourage_A0,a,a,True,1598,1,11132,subTestPhase
14,0,encourage_X1,x,a,False,1622,1,11132,subTestPhase
15,0,encourage_X0,x,a,False,1061,1,11132,subTestPhase
16,0,encourage_B3,b,b,True,1229,1,11132,subTestPhase
0,0,encourage_Y4,y,b,False,1137,1,11132,testPhase
1,0,encourage_X1,x,a,False,798,1,11132,testPhase
2,0,encourage_X0,x,a,False,1126,1,11132,testPhase
3,0,encourage_X3,x,a,False,710,1,11132,testPhase
4,0,encourage_Z4,z,b,False,894,1,11132,testPhase
5,0,encourage_Y3,y,b,False,816,1,11132,testPhase
6,0,encourage_Y5,y,b,False,725,1,11132,testPhase
7,0,encourage_Z2,z,b,False,701,1,11132,testPhase
8,0,encourage_W6,w,a,False,2142,1,11132,testPhase
9,0,encourage_A1,a,a,True,5981,1,11132,testPhase
10,0,encourage_B2,b,b,True,1078,1,11132,testPhase
11,0,encourage_Y1,y,b,False,907,1,11132,testPhase
12,0,encourage_W0,w,a,False,1717,1,11132,testPhase
13,0,encourage_Y2,y,b,False,1081,1,11132,testPhase
14,0,encourage_X5,x,a,False,1006,1,11132,testPhase
15,0,encourage_W4,w,a,False,1190,1,11132,testPhase
16,0,encourage_W3,w,a,False,913,1,11132,testPhase
17,0,encourage_W1,w,a,False,710,1,11132,testPhase
18,0,encourage_Z5,z,b,False,895,1,11132,testPhase
19,0,encourage_W2,w,a,False,1565,1,11132,testPhase
20,0,encourage_Y7,y,b,False,1135,1,11132,testPhase
21,0,encourage_A3,a,a,True,1854,1,11132,testPhase
22,0,encourage_Y0,y,b,False,766,1,11132,testPhase
23,0,encourage_X4,x,a,False,1077,1,11132,testPhase
24,0,encourage_X6,x,a,False,1125,1,11132,testPhase
25,0,encourage_Z7,z,b,False,830,1,11132,testPhase
26,0,encourage_W5,w,a,False,1093,1,11132,testPhase
27,0,encourage_Y6,y,b,False,726,1,11132,testPhase
28,0,encourage_Y8,y,b,False,744,1,11132,testPhase
29,0,encourage_B0,b,a,False,1766,1,11132,testPhase
30,0,encourage_Z0,z,b,False,741,1,11132,testPhase
31,0,encourage_X2,x,a,False,1037,1,11132,testPhase
32,0,encourage_Z8,z,b,False,1766,1,11132,testPhase
33,0,encourage_Z6,z,b,False,733,1,11132,testPhase
34,0,encourage_B1,b,a,False,1580,1,11132,testPhase
35,0,encourage_Z3,z,b,False,485,1,11132,testPhase
36,0,encourage_Z1,z,b,False,738,1,11132,testPhase
37,0,encourage_W8,w,a,False,1076,1,11132,testPhase
38,0,encourage_W7,w,a,False,862,1,11132,testPhase
39,0,encourage_X8,x,a,False,680,1,11132,testPhase
40,0,encourage_B3,b,b,True,1001,1,11132,testPhase
41,0,encourage_X7,x,a,False,1109,1,11132,testPhase
42,0,encourage_A2,a,a,True,1197,1,11132,testPhase
43,0,encourage_A0,a,a,True,1081,1,11132,testPhase
0,0,encourage_B1,b,a,False,3283,1,11277,trainPhase
1,0,encourage_B2,b,b,True,1447,1,11277,trainPhase
2,0,encourage_A3,a,b,False,1470,1,11277,trainPhase
3,0,encourage_B0,b,b,True,1573,1,11277,trainPhase
4,0,encourage_B3,b,b,True,1341,1,11277,trainPhase
5,0,encourage_A1,a,a,True,1406,1,11277,trainPhase
6,0,encourage_A2,a,a,True,1395,1,11277,trainPhase
7,0,encourage_A0,a,b,False,1950,1,11277,trainPhase
0,1,encourage_A3,a,a,True,1437,1,11277,trainPhase
1,1,encourage_B2,b,b,True,2509,1,11277,trainPhase
2,1,encourage_A2,a,a,True,1202,1,11277,trainPhase
3,1,encourage_A1,a,a,True,1381,1,11277,trainPhase
4,1,encourage_B3,b,b,True,1445,1,11277,trainPhase
5,1,encourage_B0,b,b,True,1475,1,11277,trainPhase
6,1,encourage_A0,a,a,True,1546,1,11277,trainPhase
7,1,encourage_B1,b,b,True,1597,1,11277,trainPhase
0,2,encourage_B3,b,b,True,1872,1,11277,trainPhase
1,2,encourage_A0,a,a,True,1110,1,11277,trainPhase
2,2,encourage_B1,b,b,True,1162,1,11277,trainPhase
3,2,encourage_A3,a,a,True,1285,1,11277,trainPhase
4,2,encourage_B2,b,b,True,1075,1,11277,trainPhase
5,2,encourage_B0,b,b,True,2105,1,11277,trainPhase
6,2,encourage_A2,a,a,True,1309,1,11277,trainPhase
0,0,encourage_A0,a,a,True,1550,1,11277,subTestPhase
1,0,encourage_A3,a,a,True,1541,1,11277,subTestPhase
2,0,encourage_X6,x,a,False,1324,1,11277,subTestPhase
3,0,encourage_X4,x,a,False,925,1,11277,subTestPhase
4,0,encourage_A2,a,a,True,1037,1,11277,subTestPhase
5,0,encourage_A1,a,a,True,964,1,11277,subTestPhase
6,0,encourage_X5,x,a,False,1233,1,11277,subTestPhase
7,0,encourage_X8,x,a,False,749,1,11277,subTestPhase
8,0,encourage_B0,b,b,True,978,1,11277,subTestPhase
9,0,encourage_X2,x,a,False,1158,1,11277,subTestPhase
10,0,encourage_X3,x,a,False,1005,1,11277,subTestPhase
11,0,encourage_B2,b,b,True,934,1,11277,subTestPhase
12,0,encourage_X7,x,a,False,953,1,11277,subTestPhase
13,0,encourage_B3,b,b,True,958,1,11277,subTestPhase
14,0,encourage_B1,b,b,True,1302,1,11277,subTestPhase
15,0,encourage_X1,x,a,False,806,1,11277,subTestPhase
16,0,encourage_X0,x,a,False,2190,1,11277,subTestPhase
0,0,encourage_X7,x,a,False,913,1,11277,testPhase
1,0,encourage_Y8,y,b,False,886,1,11277,testPhase
2,0,encourage_A2,a,a,True,1054,1,11277,testPhase
3,0,encourage_Z8,z,a,False,910,1,11277,testPhase
4,0,encourage_X0,x,a,False,861,1,11277,testPhase
5,0,encourage_Y4,y,b,False,1084,1,11277,testPhase
6,0,encourage_Z1,z,a,False,2379,1,11277,testPhase
7,0,encourage_A0,a,a,True,1122,1,11277,testPhase
8,0,encourage_W0,w,a,False,2212,1,11277,testPhase
9,0,encourage_W5,w,a,False,750,1,11277,testPhase
10,0,encourage_Z6,z,a,False,1331,1,11277,testPhase
11,0,encourage_B0,b,b,True,1053,1,11277,testPhase
12,0,encourage_X8,x,a,False,807,1,11277,testPhase
13,0,encourage_B1,b,a,False,2293,1,11277,testPhase
14,0,encourage_Y6,y,b,False,1012,1,11277,testPhase
15,0,encourage_Y0,y,b,False,748,1,11277,testPhase
16,0,encourage_X6,x,a,False,886,1,11277,testPhase
17,0,encourage_Y7,y,b,False,753,1,11277,testPhase
18,0,encourage_A1,a,a,True,1058,1,11277,testPhase
19,0,encourage_Z2,z,a,False,2566,1,11277,testPhase
20,0,encourage_W3,w,a,False,2007,1,11277,testPhase
21,0,encourage_X2,x,a,False,1118,1,11277,testPhase
22,0,encourage_X3,x,a,False,1350,1,11277,testPhase
23,0,encourage_W8,w,a,False,1181,1,11277,testPhase
24,0,encourage_Z3,z,a,False,1287,1,11277,testPhase
25,0,encourage_Y2,y,b,False,1254,1,11277,testPhase
26,0,encourage_Z5,z,a,False,1127,1,11277,testPhase
27,0,encourage_A3,a,a,True,870,1,11277,testPhase
28,0,encourage_Y1,y,b,False,2058,1,11277,testPhase
29,0,encourage_B2,b,b,True,1339,1,11277,testPhase
30,0,encourage_W4,w,a,False,732,1,11277,testPhase
31,0,encourage_X1,x,a,False,1185,1,11277,testPhase
32,0,encourage_W6,w,a,False,814,1,11277,testPhase
33,0,encourage_Y5,y,b,False,1262,1,11277,testPhase
34,0,encourage_Z7,z,a,False,1325,1,11277,testPhase
35,0,encourage_B3,b,b,True,887,1,11277,testPhase
36,0,encourage_Z4,z,a,False,1431,1,11277,testPhase
37,0,encourage_Y3,y,b,False,1120,1,11277,testPhase
38,0,encourage_W1,w,a,False,817,1,11277,testPhase
39,0,encourage_W2,w,a,False,806,1,11277,testPhase
40,0,encourage_Z0,z,a,False,1026,1,11277,testPhase
41,0,encourage_X4,x,a,False,690,1,11277,testPhase
42,0,encourage_X5,x,a,False,2934,1,11277,testPhase
43,0,encourage_W7,w,a,False,1502,1,11277,testPhase
0,0,encourage_A2,a,a,True,2171,1,11279,trainPhase
1,0,encourage_A1,a,b,False,1767,1,11279,trainPhase
2,0,encourage_A0,a,a,True,725,1,11279,trainPhase
3,0,encourage_B2,b,a,False,1464,1,11279,trainPhase
4,0,encourage_B3,b,b,True,1789,1,11279,trainPhase
5,0,encourage_A3,a,a,True,3430,1,11279,trainPhase
6,0,encourage_B1,b,a,False,1238,1,11279,trainPhase
7,0,encourage_B0,b,b,True,1797,1,11279,trainPhase
0,1,encourage_B1,b,b,True,3015,1,11279,trainPhase
1,1,encourage_A3,a,a,True,1186,1,11279,trainPhase
2,1,encourage_A2,a,a,True,2820,1,11279,trainPhase
3,1,encourage_A0,a,b,False,1889,1,11279,trainPhase
4,1,encourage_A1,a,a,True,613,1,11279,trainPhase
5,1,encourage_B0,b,b,True,2152,1,11279,trainPhase
6,1,encourage_B3,b,b,True,2007,1,11279,trainPhase
7,1,encourage_B2,b,b,True,1527,1,11279,trainPhase
0,2,encourage_A0,a,a,True,1544,1,11279,trainPhase
1,2,encourage_B3,b,b,True,1101,1,11279,trainPhase
2,2,encourage_B2,b,b,True,1431,1,11279,trainPhase
3,2,encourage_A2,a,a,True,2491,1,11279,trainPhase
4,2,encourage_A1,a,a,True,1701,1,11279,trainPhase
5,2,encourage_A3,a,a,True,1279,1,11279,trainPhase
6,2,encourage_B0,b,a,False,1194,1,11279,trainPhase
7,2,encourage_B1,b,b,True,1598,1,11279,trainPhase
0,3,encourage_A3,a,a,True,2094,1,11279,trainPhase
1,3,encourage_B3,b,b,True,1073,1,11279,trainPhase
2,3,encourage_B2,b,b,True,833,1,11279,trainPhase
3,3,encourage_A2,a,a,True,1400,1,11279,trainPhase
4,3,encourage_B0,b,b,True,2199,1,11279,trainPhase
5,3,encourage_A1,a,a,True,1205,1,11279,trainPhase
6,3,encourage_B1,b,b,True,1490,1,11279,trainPhase
7,3,encourage_A0,a,a,True,1014,1,11279,trainPhase
0,4,encourage_A0,a,a,True,849,1,11279,trainPhase
1,4,encourage_B3,b,b,True,1014,1,11279,trainPhase
2,4,encourage_A3,a,a,True,1055,1,11279,trainPhase
3,4,encourage_B2,b,b,True,1307,1,11279,trainPhase
4,4,encourage_A1,a,a,True,2245,1,11279,trainPhase
5,4,encourage_A2,a,a,True,1538,1,11279,trainPhase
0,0,encourage_X8,x,a,False,2063,1,11279,subTestPhase
1,0,encourage_X0,x,a,False,2094,1,11279,subTestPhase
2,0,encourage_A1,a,a,True,1205,1,11279,subTestPhase
3,0,encourage_B3,b,b,True,969,1,11279,subTestPhase
4,0,encourage_X2,x,a,False,1030,1,11279,subTestPhase
5,0,encourage_B1,b,a,False,1254,1,11279,subTestPhase
6,0,encourage_X5,x,a,False,1928,1,11279,subTestPhase
7,0,encourage_X1,x,a,False,1261,1,11279,subTestPhase
8,0,encourage_X3,x,a,False,1119,1,11279,subTestPhase
9,0,encourage_X6,x,a,False,968,1,11279,subTestPhase
10,0,encourage_A3,a,a,True,927,1,11279,subTestPhase
11,0,encourage_X4,x,a,False,918,1,11279,subTestPhase
12,0,encourage_A0,a,a,True,1558,1,11279,subTestPhase
13,0,encourage_B2,b,b,True,905,1,11279,subTestPhase
14,0,encourage_A2,a,a,True,1069,1,11279,subTestPhase
15,0,encourage_B0,b,b,True,851,1,11279,subTestPhase
16,0,encourage_X7,x,a,False,1125,1,11279,subTestPhase
0,0,encourage_A2,a,a,True,2612,1,11279,testPhase
1,0,encourage_W5,w,b,False,904,1,11279,testPhase
2,0,encourage_Z3,z,a,False,1835,1,11279,testPhase
3,0,encourage_X8,x,a,False,822,1,11279,testPhase
4,0,encourage_A0,a,a,True,1159,1,11279,testPhase
5,0,encourage_W8,w,a,False,672,1,11279,testPhase
6,0,encourage_X5,x,a,False,1558,1,11279,testPhase
7,0,encourage_A1,a,a,True,582,1,11279,testPhase
8,0,encourage_W4,w,a,False,686,1,11279,testPhase
9,0,encourage_Y8,y,b,False,942,1,11279,testPhase
10,0,encourage_W0,w,a,False,2263,1,11279,testPhase
11,0,encourage_Y2,y,b,False,1542,1,11279,testPhase
12,0,encourage_Z8,z,a,False,806,1,11279,testPhase
13,0,encourage_W2,w,a,False,1084,1,11279,testPhase
14,0,encourage_Z2,z,a,False,3630,1,11279,testPhase
15,0,encourage_X6,x,a,False,741,1,11279,testPhase
16,0,encourage_X1,x,a,False,686,1,11279,testPhase
17,0,encourage_A3,a,a,True,638,1,11279,testPhase
18,0,encourage_B2,b,b,True,1469,1,11279,testPhase
19,0,encourage_Z4,z,a,False,2172,1,11279,testPhase
20,0,encourage_W7,w,a,False,2535,1,11279,testPhase
21,0,encourage_Y5,y,b,False,1060,1,11279,testPhase
22,0,encourage_W6,w,a,False,1533,1,11279,testPhase
23,0,encourage_X3,x,a,False,1011,1,11279,testPhase
24,0,encourage_Y0,y,b,False,983,1,11279,testPhase
25,0,encourage_Y7,y,b,False,3006,1,11279,testPhase
26,0,encourage_W1,w,a,False,1265,1,11279,testPhase
27,0,encourage_Y1,y,b,False,1404,1,11279,testPhase
28,0,encourage_X0,x,a,False,779,1,11279,testPhase
29,0,encourage_W3,w,a,False,1222,1,11279,testPhase
30,0,encourage_Y3,y,b,False,1150,1,11279,testPhase
31,0,encourage_B0,b,b,True,3118,1,11279,testPhase
