trial,block,stimId,category,response,accuracy,rt,condition,id,phase
0,0,discourage_A1,a,a,True,2500,2,11127,trainPhase
1,0,discourage_A2,a,a,True,2219,2,11127,trainPhase
2,0,discourage_B3,b,a,False,2636,2,11127,trainPhase
3,0,discourage_B0,b,b,True,1385,2,11127,trainPhase
4,0,discourage_A3,a,a,True,868,2,11127,trainPhase
5,0,discourage_A0,a,b,False,1514,2,11127,trainPhase
6,0,discourage_B1,b,b,True,1376,2,11127,trainPhase
7,0,discourage_B2,b,a,False,1930,2,11127,trainPhase
0,1,discourage_B0,b,b,True,1946,2,11127,trainPhase
1,1,discourage_B2,b,b,True,1409,2,11127,trainPhase
2,1,discourage_A1,a,a,True,1107,2,11127,trainPhase
3,1,discourage_A3,a,a,True,975,2,11127,trainPhase
4,1,discourage_B3,b,b,True,1805,2,11127,trainPhase
5,1,discourage_B1,b,b,True,1238,2,11127,trainPhase
6,1,discourage_A0,a,a,True,1317,2,11127,trainPhase
7,1,discourage_A2,a,a,True,1128,2,11127,trainPhase
0,2,discourage_A1,a,a,True,1048,2,11127,trainPhase
1,2,discourage_B1,b,b,True,1854,2,11127,trainPhase
2,2,discourage_A0,a,a,True,831,2,11127,trainPhase
3,2,discourage_A3,a,a,True,3757,2,11127,trainPhase
4,2,discourage_B3,b,b,True,3415,2,11127,trainPhase
5,2,discourage_B0,b,b,True,1092,2,11127,trainPhase
6,2,discourage_B2,b,b,True,1933,2,11127,trainPhase
0,0,discourage_X6,x,a,False,3090,2,11127,subTestPhase
1,0,discourage_X8,x,a,False,1157,2,11127,subTestPhase
2,0,discourage_B3,b,b,True,1457,2,11127,subTestPhase
3,0,discourage_X4,x,a,False,821,2,11127,subTestPhase
4,0,discourage_B2,b,b,True,819,2,11127,subTestPhase
5,0,discourage_X7,x,a,False,740,2,11127,subTestPhase
6,0,discourage_A3,a,a,True,812,2,11127,subTestPhase
7,0,discourage_A0,a,a,True,1382,2,11127,subTestPhase
8,0,discourage_A1,a,a,True,1221,2,11127,subTestPhase
9,0,discourage_A2,a,b,False,740,2,11127,subTestPhase
10,0,discourage_X1,x,a,False,1144,2,11127,subTestPhase
11,0,discourage_X3,x,a,False,585,2,11127,subTestPhase
12,0,discourage_X0,x,a,False,834,2,11127,subTestPhase
13,0,discourage_X5,x,a,False,1078,2,11127,subTestPhase
14,0,discourage_B1,b,b,True,823,2,11127,subTestPhase
15,0,discourage_X2,x,a,False,653,2,11127,subTestPhase
16,0,discourage_B0,b,b,True,546,2,11127,subTestPhase
0,0,discourage_Z2,z,a,False,4109,2,11127,testPhase
1,0,discourage_X4,x,a,False,719,2,11127,testPhase
2,0,discourage_W7,w,b,False,695,2,11127,testPhase
3,0,discourage_W0,w,a,False,2396,2,11127,testPhase
4,0,discourage_Z8,z,a,False,1030,2,11127,testPhase
5,0,discourage_Z7,z,a,False,776,2,11127,testPhase
6,0,discourage_Y0,y,b,False,963,2,11127,testPhase
7,0,discourage_Y7,y,b,False,582,2,11127,testPhase
8,0,discourage_W1,w,a,False,934,2,11127,testPhase
9,0,discourage_Y4,y,b,False,896,2,11127,testPhase
10,0,discourage_Z3,z,a,False,803,2,11127,testPhase
11,0,discourage_W6,w,a,False,1560,2,11127,testPhase
12,0,discourage_Y6,y,b,False,1282,2,11127,testPhase
13,0,discourage_X3,x,a,False,1085,2,11127,testPhase
14,0,discourage_X1,x,a,False,625,2,11127,testPhase
15,0,discourage_W4,w,a,False,586,2,11127,testPhase
16,0,discourage_Z6,z,a,False,1201,2,11127,testPhase
17,0,discourage_B1,b,b,True,1431,2,11127,testPhase
18,0,discourage_X7,x,a,False,686,2,11127,testPhase
19,0,discourage_Z4,z,a,False,1327,2,11127,testPhase
20,0,discourage_X8,x,a,False,641,2,11127,testPhase
21,0,discourage_W3,w,b,False,873,2,11127,testPhase
22,0,discourage_A0,a,a,True,1357,2,11127,testPhase
23,0,discourage_Z0,z,a,False,3123,2,11127,testPhase
24,0,discourage_B0,b,b,True,1237,2,11127,testPhase
25,0,discourage_Y1,y,b,False,675,2,11127,testPhase
26,0,discourage_X0,x,a,False,2153,2,11127,testPhase
27,0,discourage_X6,x,a,False,587,2,11127,testPhase
28,0,discourage_A3,a,a,True,543,2,11127,testPhase
29,0,discourage_W2,w,a,False,1093,2,11127,testPhase
30,0,discourage_A1,a,a,True,523,2,11127,testPhase
31,0,discourage_X2,x,a,False,533,2,11127,testPhase
32,0,discourage_A2,a,a,True,1558,2,11127,testPhase
33,0,discourage_B2,b,b,True,2279,2,11127,testPhase
34,0,discourage_W8,w,a,False,1068,2,11127,testPhase
35,0,discourage_Y8,y,b,False,864,2,11127,testPhase
36,0,discourage_Y2,y,b,False,1119,2,11127,testPhase
37,0,discourage_Y3,y,b,False,510,2,11127,testPhase
38,0,discourage_W5,w,a,False,790,2,11127,testPhase
39,0,discourage_Y5,y,b,False,601,2,11127,testPhase
40,0,discourage_X5,x,a,False,696,2,11127,testPhase
41,0,discourage_B3,b,a,False,1880,2,11127,testPhase
42,0,discourage_Z1,z,a,False,657,2,11127,testPhase
43,0,discourage_Z5,z,a,False,498,2,11127,testPhase
0,0,discourage_A3,a,a,True,5218,2,11239,trainPhase
1,0,discourage_A2,a,a,True,4261,2,11239,trainPhase
2,0,discourage_A1,a,a,True,3125,2,11239,trainPhase
3,0,discourage_B0,b,a,False,2101,2,11239,trainPhase
4,0,discourage_B3,b,b,True,1789,2,11239,trainPhase
5,0,discourage_B2,b,a,False,1701,2,11239,trainPhase
6,0,discourage_A0,a,a,True,2478,2,11239,trainPhase
7,0,discourage_B1,b,b,True,1333,2,11239,trainPhase
0,1,discourage_A0,a,a,True,1556,2,11239,trainPhase
1,1,discourage_B2,b,b,True,3595,2,11239,trainPhase
2,1,discourage_B1,b,b,True,3173,2,11239,trainPhase
3,1,discourage_A1,a,a,True,1307,2,11239,trainPhase
4,1,discourage_B0,b,a,False,3733,2,11239,trainPhase
5,1,discourage_A2,a,b,False,4468,2,11239,trainPhase
6,1,discourage_B3,b,b,True,1253,2,11239,trainPhase
7,1,discourage_A3,a,a,True,1877,2,11239,trainPhase
0,2,discourage_A2,a,a,True,1364,2,11239,trainPhase
1,2,discourage_B3,b,b,True,1589,2,11239,trainPhase
2,2,discourage_B2,b,b,True,4253,2,11239,trainPhase
3,2,discourage_B0,b,b,True,2894,2,11239,trainPhase
4,2,discourage_A3,a,a,True,2271,2,11239,trainPhase
5,2,discourage_B1,b,b,True,1293,2,11239,trainPhase
6,2,discourage_A0,a,a,True,1242,2,11239,trainPhase
7,2,discourage_A1,a,a,True,1277,2,11239,trainPhase
0,3,discourage_A2,a,a,True,2323,2,11239,trainPhase
1,3,discourage_B1,b,b,True,1501,2,11239,trainPhase
2,3,discourage_B0,b,b,True,2161,2,11239,trainPhase
3,3,discourage_A1,a,a,True,997,2,11239,trainPhase
4,3,discourage_B2,b,b,True,1438,2,11239,trainPhase
0,0,discourage_B2,b,b,True,2813,2,11239,subTestPhase
1,0,discourage_B1,b,b,True,1270,2,11239,subTestPhase
2,0,discourage_X1,x,a,False,1542,2,11239,subTestPhase
3,0,discourage_B3,b,b,True,1342,2,11239,subTestPhase
4,0,discourage_A0,a,a,True,1025,2,11239,subTestPhase
5,0,discourage_B0,b,b,True,1429,2,11239,subTestPhase
6,0,discourage_A3,a,a,True,1492,2,11239,subTestPhase
7,0,discourage_X2,x,a,False,1293,2,11239,subTestPhase
8,0,discourage_A1,a,a,True,1198,2,11239,subTestPhase
9,0,discourage_X6,x,a,False,1507,2,11239,subTestPhase
10,0,discourage_X0,x,a,False,1821,2,11239,subTestPhase
11,0,discourage_X7,x,a,False,1342,2,11239,subTestPhase
12,0,discourage_X8,x,a,False,1246,2,11239,subTestPhase
13,0,discourage_X4,x,a,False,1382,2,11239,subTestPhase
14,0,discourage_A2,a,a,True,1691,2,11239,subTestPhase
15,0,discourage_X3,x,a,False,1958,2,11239,subTestPhase
16,0,discourage_X5,x,a,False,1366,2,11239,subTestPhase
0,0,discourage_Z2,z,b,False,1308,2,11239,testPhase
1,0,discourage_W2,w,a,False,1714,2,11239,testPhase
2,0,discourage_W1,w,a,False,1776,2,11239,testPhase
3,0,discourage_X8,x,a,False,1150,2,11239,testPhase
4,0,discourage_X6,x,a,False,1342,2,11239,testPhase
5,0,discourage_Z7,z,b,False,1408,2,11239,testPhase
6,0,discourage_W6,w,b,False,1950,2,11239,testPhase
7,0,discourage_Z6,z,b,False,1198,2,11239,testPhase
8,0,discourage_Y2,y,b,False,1366,2,11239,testPhase
9,0,discourage_X4,x,a,False,1261,2,11239,testPhase
10,0,discourage_Y6,y,b,False,1447,2,11239,testPhase
11,0,discourage_W4,w,a,False,1842,2,11239,testPhase
12,0,discourage_W0,w,a,False,1265,2,11239,testPhase
13,0,discourage_Z1,z,a,False,4151,2,11239,testPhase
14,0,discourage_W5,w,a,False,1332,2,11239,testPhase
15,0,discourage_B3,b,b,True,2017,2,11239,testPhase
16,0,discourage_Y3,y,b,False,1229,2,11239,testPhase
17,0,discourage_A3,a,a,True,1470,2,11239,testPhase
18,0,discourage_Y4,y,b,False,1249,2,11239,testPhase
19,0,discourage_Y5,y,b,False,1096,2,11239,testPhase
20,0,discourage_B0,b,b,True,2617,2,11239,testPhase
21,0,discourage_W3,w,a,False,1175,2,11239,testPhase
22,0,discourage_W7,w,a,False,1306,2,11239,testPhase
23,0,discourage_B1,b,b,True,2490,2,11239,testPhase
24,0,discourage_Y7,y,b,False,1128,2,11239,testPhase
25,0,discourage_Y1,y,b,False,1213,2,11239,testPhase
26,0,discourage_X3,x,a,False,902,2,11239,testPhase
27,0,discourage_Z0,z,a,False,2387,2,11239,testPhase
28,0,discourage_A2,a,a,True,1084,2,11239,testPhase
29,0,discourage_Z3,z,b,False,1525,2,11239,testPhase
30,0,discourage_Y8,y,b,False,1102,2,11239,testPhase
31,0,discourage_A0,a,a,True,958,2,11239,testPhase
32,0,discourage_X5,x,a,False,823,2,11239,testPhase
33,0,discourage_Z5,z,a,False,1497,2,11239,testPhase
34,0,discourage_W8,w,a,False,1529,2,11239,testPhase
35,0,discourage_Z4,z,a,False,1537,2,11239,testPhase
36,0,discourage_X1,x,a,False,1057,2,11239,testPhase
37,0,discourage_Y0,y,b,False,1099,2,11239,testPhase
38,0,discourage_X0,x,a,False,902,2,11239,testPhase
39,0,discourage_A1,a,a,True,1205,2,11239,testPhase
40,0,discourage_X7,x,a,False,860,2,11239,testPhase
41,0,discourage_X2,x,a,False,1053,2,11239,testPhase
42,0,discourage_B2,b,b,True,1421,2,11239,testPhase
43,0,discourage_Z8,z,a,False,1450,2,11239,testPhase
0,0,discourage_B3,b,a,False,2033,2,11246,trainPhase
1,0,discourage_B1,b,b,True,1541,2,11246,trainPhase
2,0,discourage_B2,b,b,True,1414,2,11246,trainPhase
3,0,discourage_A1,a,a,True,1076,2,11246,trainPhase
4,0,discourage_A2,a,b,False,981,2,11246,trainPhase
5,0,discourage_A0,a,a,True,3834,2,11246,trainPhase
6,0,discourage_B0,b,b,True,1245,2,11246,trainPhase
7,0,discourage_A3,a,a,True,1164,2,11246,trainPhase
0,1,discourage_B1,b,b,True,1229,2,11246,trainPhase
1,1,discourage_A0,a,a,True,1405,2,11246,trainPhase
2,1,discourage_A1,a,a,True,1629,2,11246,trainPhase
3,1,discourage_B3,b,b,True,933,2,11246,trainPhase
4,1,discourage_A2,a,a,True,1709,2,11246,trainPhase
5,1,discourage_A3,a,a,True,1902,2,11246,trainPhase
6,1,discourage_B0,b,b,True,1086,2,11246,trainPhase
7,1,discourage_B2,b,b,True,1069,2,11246,trainPhase
0,2,discourage_A3,a,a,True,1046,2,11246,trainPhase
1,2,discourage_B1,b,b,True,966,2,11246,trainPhase
2,2,discourage_A1,a,a,True,1062,2,11246,trainPhase
3,2,discourage_B2,b,b,True,822,2,11246,trainPhase
0,0,discourage_B0,b,b,True,1614,2,11246,subTestPhase
1,0,discourage_X0,x,a,False,1045,2,11246,subTestPhase
2,0,discourage_X5,x,a,False,1213,2,11246,subTestPhase
3,0,discourage_B1,b,b,True,1270,2,11246,subTestPhase
4,0,discourage_B2,b,b,True,997,2,11246,subTestPhase
5,0,discourage_X3,x,a,False,925,2,11246,subTestPhase
6,0,discourage_X4,x,a,False,885,2,11246,subTestPhase
7,0,discourage_X1,x,a,False,948,2,11246,subTestPhase
8,0,discourage_X2,x,a,False,973,2,11246,subTestPhase
9,0,discourage_X6,x,a,False,1096,2,11246,subTestPhase
10,0,discourage_A3,a,a,True,1742,2,11246,subTestPhase
11,0,discourage_X8,x,a,False,8868,2,11246,subTestPhase
12,0,discourage_B3,b,b,True,1052,2,11246,subTestPhase
13,0,discourage_A0,a,a,True,1214,2,11246,subTestPhase
14,0,discourage_X7,x,a,False,2518,2,11246,subTestPhase
15,0,discourage_A1,a,a,True,1605,2,11246,subTestPhase
16,0,discourage_A2,a,a,True,1462,2,11246,subTestPhase
0,0,discourage_Y0,y,b,False,1757,2,11246,testPhase
1,0,discourage_Z5,z,a,False,4748,2,11246,testPhase
2,0,discourage_X2,x,a,False,1071,2,11246,testPhase
3,0,discourage_Y4,y,b,False,1850,2,11246,testPhase
4,0,discourage_Y7,y,b,False,1478,2,11246,testPhase
5,0,discourage_X5,x,a,False,1750,2,11246,testPhase
6,0,discourage_Z7,z,a,False,2062,2,11246,testPhase
7,0,discourage_W7,w,a,False,4640,2,11246,testPhase
8,0,discourage_A2,a,a,True,1634,2,11246,testPhase
9,0,discourage_B0,b,a,False,1782,2,11246,testPhase
10,0,discourage_B1,b,a,False,925,2,11246,testPhase
11,0,discourage_X3,x,a,False,1174,2,11246,testPhase
12,0,discourage_B3,b,a,False,1366,2,11246,testPhase
13,0,discourage_Y1,y,b,False,923,2,11246,testPhase
14,0,discourage_A0,a,a,True,2031,2,11246,testPhase
15,0,discourage_Y6,y,b,False,1429,2,11246,testPhase
16,0,discourage_W5,w,a,False,902,2,11246,testPhase
17,0,discourage_A1,a,a,True,1418,2,11246,testPhase
18,0,discourage_Z3,z,a,False,1411,2,11246,testPhase
19,0,discourage_Z0,z,a,False,1565,2,11246,testPhase
20,0,discourage_W2,w,a,False,1279,2,11246,testPhase
21,0,discourage_X7,x,a,False,4413,2,11246,testPhase
22,0,discourage_Y2,y,b,False,1296,2,11246,testPhase
23,0,discourage_W0,w,a,False,2452,2,11246,testPhase
24,0,discourage_B2,b,a,False,1585,2,11246,testPhase
25,0,discourage_Z4,z,b,False,10245,2,11246,testPhase
26,0,discourage_Y5,y,b,False,1086,2,11246,testPhase
27,0,discourage_Z8,z,a,False,2038,2,11246,testPhase
28,0,discourage_X0,x,a,False,894,2,11246,testPhase
29,0,discourage_W1,w,a,False,1094,2,11246,testPhase
30,0,discourage_Z6,z,a,False,2024,2,11246,testPhase
31,0,discourage_Y3,y,b,False,2021,2,11246,testPhase
32,0,discourage_A3,a,a,True,990,2,11246,testPhase
33,0,discourage_Z1,z,a,False,3710,2,11246,testPhase
34,0,discourage_W3,w,a,False,861,2,11246,testPhase
35,0,discourage_X4,x,a,False,1086,2,11246,testPhase
36,0,discourage_W4,w,a,False,1010,2,11246,testPhase
37,0,discourage_W8,w,a,False,1745,2,11246,testPhase
38,0,discourage_X8,x,a,False,913,2,11246,testPhase
39,0,discourage_W6,w,a,False,1038,2,11246,testPhase
40,0,discourage_X6,x,a,False,958,2,11246,testPhase
41,0,discourage_X1,x,a,False,797,2,11246,testPhase
42,0,discourage_Z2,z,a,False,1045,2,11246,testPhase
43,0,discourage_Y8,y,b,False,905,2,11246,testPhase
0,0,discourage_B3,b,a,False,2772,2,11129,trainPhase
1,0,discourage_A0,a,a,True,2147,2,11129,trainPhase
2,0,discourage_B1,b,b,True,1144,2,11129,trainPhase
3,0,discourage_B0,b,b,True,1517,2,11129,trainPhase
4,0,discourage_A2,a,b,False,741,2,11129,trainPhase
5,0,discourage_A1,a,a,True,1376,2,11129,trainPhase
6,0,discourage_B2,b,b,True,1352,2,11129,trainPhase
7,0,discourage_A3,a,a,True,1075,2,11129,trainPhase
0,1,discourage_A3,a,a,True,1140,2,11129,trainPhase
1,1,discourage_B2,b,b,True,1657,2,11129,trainPhase
2,1,discourage_B0,b,b,True,2430,2,11129,trainPhase
3,1,discourage_A2,a,a,True,1619,2,11129,trainPhase
4,1,discourage_B3,b,a,False,1658,2,11129,trainPhase
5,1,discourage_A0,a,a,True,2202,2,11129,trainPhase
6,1,discourage_B1,b,b,True,1006,2,11129,trainPhase
7,1,discourage_A1,a,a,True,1586,2,11129,trainPhase
0,2,discourage_A1,a,a,True,833,2,11129,trainPhase
1,2,discourage_A3,a,a,True,948,2,11129,trainPhase
2,2,discourage_B3,b,b,True,1794,2,11129,trainPhase
3,2,discourage_B0,b,b,True,1874,2,11129,trainPhase
4,2,discourage_A2,a,a,True,992,2,11129,trainPhase
5,2,discourage_B1,b,b,True,1374,2,11129,trainPhase
6,2,discourage_A0,a,a,True,806,2,11129,trainPhase
7,2,discourage_B2,b,b,True,898,2,11129,trainPhase
0,3,discourage_A1,a,a,True,982,2,11129,trainPhase
1,3,discourage_B1,b,b,True,862,2,11129,trainPhase
2,3,discourage_A0,a,a,True,966,2,11129,trainPhase
3,3,discourage_B2,b,b,True,759,2,11129,trainPhase
0,0,discourage_A3,a,a,True,1717,2,11129,subTestPhase
1,0,discourage_A1,a,a,True,1153,2,11129,subTestPhase
2,0,discourage_B3,b,b,True,1513,2,11129,subTestPhase
3,0,discourage_X0,x,a,False,1461,2,11129,subTestPhase
4,0,discourage_X2,x,a,False,1237,2,11129,subTestPhase
5,0,discourage_X8,x,a,False,832,2,11129,subTestPhase
6,0,discourage_X4,x,a,False,2098,2,11129,subTestPhase
7,0,discourage_X6,x,a,False,1705,2,11129,subTestPhase
8,0,discourage_X5,x,a,False,1043,2,11129,subTestPhase
9,0,discourage_B2,b,b,True,967,2,11129,subTestPhase
10,0,discourage_X1,x,a,False,1668,2,11129,subTestPhase
11,0,discourage_A0,a,a,True,1639,2,11129,subTestPhase
12,0,discourage_B1,b,b,True,850,2,11129,subTestPhase
13,0,discourage_X3,x,a,False,1452,2,11129,subTestPhase
14,0,discourage_B0,b,b,True,761,2,11129,subTestPhase
15,0,discourage_X7,x,a,False,980,2,11129,subTestPhase
16,0,discourage_A2,a,a,True,1210,2,11129,subTestPhase
0,0,discourage_W8,w,a,False,2918,2,11129,testPhase
1,0,discourage_X4,x,a,False,836,2,11129,testPhase
2,0,discourage_B0,b,b,True,1081,2,11129,testPhase
3,0,discourage_W4,w,b,False,3158,2,11129,testPhase
4,0,discourage_Y2,y,b,False,1200,2,11129,testPhase
5,0,discourage_Z7,z,a,False,1086,2,11129,testPhase
6,0,discourage_W1,w,b,False,775,2,11129,testPhase
7,0,discourage_Y3,y,b,False,1288,2,11129,testPhase
8,0,discourage_W7,w,a,False,1261,2,11129,testPhase
9,0,discourage_A0,a,a,True,1047,2,11129,testPhase
10,0,discourage_W0,w,b,False,1917,2,11129,testPhase
11,0,discourage_Z5,z,a,False,1327,2,11129,testPhase
12,0,discourage_W5,w,a,False,1757,2,11129,testPhase
13,0,discourage_X8,x,a,False,723,2,11129,testPhase
14,0,discourage_B2,b,b,True,1653,2,11129,testPhase
15,0,discourage_X0,x,a,False,812,2,11129,testPhase
16,0,discourage_A1,a,a,True,1295,2,11129,testPhase
17,0,discourage_Y7,y,b,False,1133,2,11129,testPhase
18,0,discourage_Z8,z,a,False,1768,2,11129,testPhase
19,0,discourage_Y4,y,b,False,1058,2,11129,testPhase
20,0,discourage_Y1,y,b,False,1016,2,11129,testPhase
21,0,discourage_Y0,y,b,False,661,2,11129,testPhase
22,0,discourage_Z6,z,a,False,974,2,11129,testPhase
23,0,discourage_X3,x,a,False,1052,2,11129,testPhase
24,0,discourage_Z2,z,a,False,749,2,11129,testPhase
25,0,discourage_X1,x,a,False,795,2,11129,testPhase
26,0,discourage_Z0,z,a,False,979,2,11129,testPhase
27,0,discourage_A2,a,a,True,773,2,11129,testPhase
28,0,discourage_Y8,y,b,False,866,2,11129,testPhase
29,0,discourage_Z3,z,a,False,565,2,11129,testPhase
30,0,discourage_B3,b,b,True,1727,2,11129,testPhase
31,0,discourage_X2,x,a,False,734,2,11129,testPhase
32,0,discourage_X6,x,a,False,870,2,11129,testPhase
33,0,discourage_X7,x,a,False,910,2,11129,testPhase
34,0,discourage_X5,x,a,False,613,2,11129,testPhase
35,0,discourage_W2,w,a,False,968,2,11129,testPhase
36,0,discourage_Z4,z,b,False,966,2,11129,testPhase
37,0,discourage_W3,w,a,False,3141,2,11129,testPhase
38,0,discourage_Z1,z,b,False,1712,2,11129,testPhase
39,0,discourage_W6,w,a,False,1638,2,11129,testPhase
40,0,discourage_A3,a,a,True,1571,2,11129,testPhase
41,0,discourage_B1,b,b,True,1181,2,11129,testPhase
42,0,discourage_Y5,y,b,False,942,2,11129,testPhase
43,0,discourage_Y6,y,b,False,703,2,11129,testPhase
0,0,discourage_A1,a,b,False,4032,2,11248,trainPhase
1,0,discourage_B2,b,b,True,4466,2,11248,trainPhase
2,0,discourage_B3,b,b,True,2923,2,11248,trainPhase
3,0,discourage_B1,b,b,True,2663,2,11248,trainPhase
4,0,discourage_B0,b,b,True,3158,2,11248,trainPhase
5,0,discourage_A3,a,b,False,3243,2,11248,trainPhase
6,0,discourage_A0,a,a,True,2197,2,11248,trainPhase
7,0,discourage_A2,a,a,True,2182,2,11248,trainPhase
0,1,discourage_A3,a,a,True,2087,2,11248,trainPhase
1,1,discourage_B1,b,b,True,1650,2,11248,trainPhase
2,1,discourage_A1,a,a,True,1543,2,11248,trainPhase
3,1,discourage_B0,b,b,True,1933,2,11248,trainPhase
4,1,discourage_A2,a,a,True,1735,2,11248,trainPhase
5,1,discourage_A0,a,a,True,1747,2,11248,trainPhase
6,1,discourage_B3,b,b,True,1229,2,11248,trainPhase
7,1,discourage_B2,b,b,True,10587,2,11248,trainPhase
0,2,discourage_A0,a,a,True,981,2,11248,trainPhase
1,2,discourage_B1,b,b,True,1092,2,11248,trainPhase
2,2,discourage_A2,a,a,True,1699,2,11248,trainPhase
3,2,discourage_B0,b,b,True,1126,2,11248,trainPhase
4,2,discourage_A3,a,a,True,1830,2,11248,trainPhase
0,0,discourage_X0,x,a,False,6601,2,11248,subTestPhase
1,0,discourage_A1,a,a,True,1834,2,11248,subTestPhase
2,0,discourage_X4,x,a,False,1270,2,11248,subTestPhase
3,0,discourage_X2,x,a,False,1210,2,11248,subTestPhase
4,0,discourage_X1,x,a,False,1542,2,11248,subTestPhase
5,0,discourage_X8,x,a,False,1216,2,11248,subTestPhase
6,0,discourage_B3,b,b,True,943,2,11248,subTestPhase
7,0,discourage_A3,a,b,False,1805,2,11248,subTestPhase
8,0,discourage_X5,x,a,False,1021,2,11248,subTestPhase
9,0,discourage_B1,b,b,True,1100,2,11248,subTestPhase
10,0,discourage_B0,b,b,True,972,2,11248,subTestPhase
11,0,discourage_X7,x,a,False,1094,2,11248,subTestPhase
12,0,discourage_A0,a,a,True,920,2,11248,subTestPhase
13,0,discourage_B2,b,b,True,1056,2,11248,subTestPhase
14,0,discourage_X3,x,a,False,3269,2,11248,subTestPhase
15,0,discourage_A2,a,b,False,1088,2,11248,subTestPhase
16,0,discourage_X6,x,a,False,1293,2,11248,subTestPhase
0,0,discourage_Y1,y,b,False,1452,2,11248,testPhase
1,0,discourage_W3,w,b,False,1648,2,11248,testPhase
2,0,discourage_Y4,y,b,False,1148,2,11248,testPhase
3,0,discourage_X4,x,a,False,1046,2,11248,testPhase
4,0,discourage_Z5,z,b,False,1150,2,11248,testPhase
5,0,discourage_Z2,z,b,False,1538,2,11248,testPhase
6,0,discourage_Z4,z,b,False,1343,2,11248,testPhase
7,0,discourage_Y3,y,b,False,1262,2,11248,testPhase
8,0,discourage_A3,a,b,False,1197,2,11248,testPhase
9,0,discourage_Y5,y,b,False,1310,2,11248,testPhase
10,0,discourage_Z1,z,b,False,1193,2,11248,testPhase
11,0,discourage_W0,w,a,False,2434,2,11248,testPhase
12,0,discourage_W8,w,a,False,1188,2,11248,testPhase
13,0,discourage_B0,b,b,True,1333,2,11248,testPhase
14,0,discourage_W2,w,a,False,846,2,11248,testPhase
15,0,discourage_Y7,y,b,False,998,2,11248,testPhase
16,0,discourage_W5,w,a,False,1050,2,11248,testPhase
17,0,discourage_W1,w,a,False,1158,2,11248,testPhase
18,0,discourage_W6,w,a,False,1829,2,11248,testPhase
19,0,discourage_Z7,z,b,False,974,2,11248,testPhase
20,0,discourage_X1,x,a,False,1493,2,11248,testPhase
21,0,discourage_A0,a,a,True,1509,2,11248,testPhase
22,0,discourage_Z6,z,b,False,1166,2,11248,testPhase
23,0,discourage_X0,x,b,False,4637,2,11248,testPhase
24,0,discourage_Z8,z,b,False,1062,2,11248,testPhase
25,0,discourage_Z3,z,b,False,1123,2,11248,testPhase
26,0,discourage_W7,w,a,False,1152,2,11248,testPhase
27,0,discourage_B3,b,b,True,846,2,11248,testPhase
28,0,discourage_X7,x,a,False,910,2,11248,testPhase
29,0,discourage_Y0,y,b,False,1190,2,11248,testPhase
30,0,discourage_B1,b,b,True,1254,2,11248,testPhase
31,0,discourage_W4,w,a,False,1229,2,11248,testPhase
32,0,discourage_A2,a,b,False,978,2,11248,testPhase
33,0,discourage_Y6,y,b,False,1246,2,11248,testPhase
34,0,discourage_Y8,y,b,False,1518,2,11248,testPhase
35,0,discourage_B2,b,b,True,1334,2,11248,testPhase
36,0,discourage_X8,x,a,False,1039,2,11248,testPhase
37,0,discourage_X3,x,a,False,2734,2,11248,testPhase
38,0,discourage_Y2,y,b,False,1214,2,11248,testPhase
39,0,discourage_A1,a,a,True,861,2,11248,testPhase
40,0,discourage_X2,x,a,False,767,2,11248,testPhase
41,0,discourage_X5,x,a,False,1033,2,11248,testPhase
42,0,discourage_X6,x,a,False,2174,2,11248,testPhase
43,0,discourage_Z0,z,b,False,1072,2,11248,testPhase
0,0,discourage_A0,a,a,True,3616,2,11250,trainPhase
1,0,discourage_A3,a,b,False,3530,2,11250,trainPhase
2,0,discourage_B2,b,a,False,1431,2,11250,trainPhase
3,0,discourage_B3,b,b,True,3238,2,11250,trainPhase
4,0,discourage_B0,b,b,True,3733,2,11250,trainPhase
5,0,discourage_A2,a,b,False,1522,2,11250,trainPhase
6,0,discourage_B1,b,b,True,1092,2,11250,trainPhase
7,0,discourage_A1,a,a,True,1773,2,11250,trainPhase
0,1,discourage_B1,b,b,True,1211,2,11250,trainPhase
1,1,discourage_A0,a,a,True,1178,2,11250,trainPhase
2,1,discourage_B0,b,b,True,1313,2,11250,trainPhase
3,1,discourage_A3,a,a,True,1166,2,11250,trainPhase
4,1,discourage_B3,b,b,True,3035,2,11250,trainPhase
5,1,discourage_B2,b,b,True,1541,2,11250,trainPhase
6,1,discourage_A2,a,a,True,1400,2,11250,trainPhase
7,1,discourage_A1,a,a,True,1050,2,11250,trainPhase
0,2,discourage_A2,a,a,True,1051,2,11250,trainPhase
1,2,discourage_B1,b,b,True,1058,2,11250,trainPhase
2,2,discourage_B3,b,b,True,1706,2,11250,trainPhase
3,2,discourage_A1,a,a,True,1758,2,11250,trainPhase
4,2,discourage_A3,a,a,True,2119,2,11250,trainPhase
0,0,discourage_X5,x,a,False,1808,2,11250,subTestPhase
1,0,discourage_A2,a,a,True,3353,2,11250,subTestPhase
2,0,discourage_X8,x,a,False,1023,2,11250,subTestPhase
3,0,discourage_B3,b,b,True,1213,2,11250,subTestPhase
4,0,discourage_X4,x,a,False,917,2,11250,subTestPhase
5,0,discourage_A1,a,a,True,1677,2,11250,subTestPhase
6,0,discourage_X2,x,a,False,1131,2,11250,subTestPhase
7,0,discourage_A3,a,a,True,1165,2,11250,subTestPhase
8,0,discourage_X1,x,a,False,1334,2,11250,subTestPhase
9,0,discourage_X6,x,a,False,1133,2,11250,subTestPhase
10,0,discourage_A0,a,a,True,1517,2,11250,subTestPhase
11,0,discourage_B2,b,b,True,1316,2,11250,subTestPhase
12,0,discourage_X3,x,a,False,1561,2,11250,subTestPhase
13,0,discourage_B0,b,b,True,1088,2,11250,subTestPhase
14,0,discourage_X0,x,a,False,1003,2,11250,subTestPhase
15,0,discourage_B1,b,b,True,760,2,11250,subTestPhase
16,0,discourage_X7,x,a,False,807,2,11250,subTestPhase
0,0,discourage_A3,a,a,True,1800,2,11250,testPhase
1,0,discourage_X2,x,a,False,1573,2,11250,testPhase
2,0,discourage_Y2,y,b,False,3172,2,11250,testPhase
3,0,discourage_Z0,z,b,False,2420,2,11250,testPhase
4,0,discourage_Z5,z,b,False,1375,2,11250,testPhase
5,0,discourage_Y6,y,b,False,1587,2,11250,testPhase
6,0,discourage_X0,x,a,False,1143,2,11250,testPhase
7,0,discourage_Y5,y,b,False,1221,2,11250,testPhase
8,0,discourage_Y8,y,b,False,926,2,11250,testPhase
9,0,discourage_B0,b,b,True,3204,2,11250,testPhase
10,0,discourage_Y3,y,b,False,911,2,11250,testPhase
11,0,discourage_Z4,z,b,False,2060,2,11250,testPhase
12,0,discourage_X7,x,a,False,1016,2,11250,testPhase
13,0,discourage_Z1,z,b,False,7197,2,11250,testPhase
14,0,discourage_A2,a,b,False,3538,2,11250,testPhase
15,0,discourage_Z3,z,b,False,1682,2,11250,testPhase
16,0,discourage_X3,x,a,False,1704,2,11250,testPhase
17,0,discourage_Y4,y,b,False,993,2,11250,testPhase
18,0,discourage_W2,w,a,False,1108,2,11250,testPhase
19,0,discourage_Z6,z,b,False,916,2,11250,testPhase
20,0,discourage_X6,x,a,False,2010,2,11250,testPhase
21,0,discourage_W6,w,a,False,1125,2,11250,testPhase
22,0,discourage_Y7,y,b,False,718,2,11250,testPhase
23,0,discourage_X1,x,a,False,930,2,11250,testPhase
24,0,discourage_X5,x,a,False,774,2,11250,testPhase
25,0,discourage_Y0,y,b,False,811,2,11250,testPhase
26,0,discourage_W4,w,a,False,849,2,11250,testPhase
27,0,discourage_W3,w,a,False,798,2,11250,testPhase
28,0,discourage_W5,w,a,False,749,2,11250,testPhase
29,0,discourage_W1,w,a,False,818,2,11250,testPhase
30,0,discourage_Y1,y,b,False,826,2,11250,testPhase
31,0,discourage_B3,b,b,True,1393,2,11250,testPhase
32,0,discourage_X8,x,a,False,1015,2,11250,testPhase
33,0,discourage_W0,w,a,False,994,2,11250,testPhase
34,0,discourage_X4,x,a,False,865,2,11250,testPhase
35,0,discourage_A1,a,a,True,671,2,11250,testPhase
36,0,discourage_A0,a,a,True,771,2,11250,testPhase
37,0,discourage_B1,b,b,True,1177,2,11250,testPhase
38,0,discourage_B2,b,b,True,661,2,11250,testPhase
39,0,discourage_W8,w,a,False,951,2,11250,testPhase
40,0,discourage_W7,w,a,False,646,2,11250,testPhase
41,0,discourage_Z8,z,a,False,1526,2,11250,testPhase
42,0,discourage_Z7,z,a,False,1242,2,11250,testPhase
43,0,discourage_Z2,z,a,False,1210,2,11250,testPhase
0,0,discourage_A1,a,a,True,2378,2,11252,trainPhase
1,0,discourage_B1,b,a,False,1068,2,11252,trainPhase
2,0,discourage_B3,b,b,True,1562,2,11252,trainPhase
3,0,discourage_A3,a,b,False,914,2,11252,trainPhase
4,0,discourage_B2,b,a,False,1405,2,11252,trainPhase
5,0,discourage_A0,a,a,True,985,2,11252,trainPhase
6,0,discourage_B0,b,b,True,2281,2,11252,trainPhase
7,0,discourage_A2,a,a,True,1413,2,11252,trainPhase
0,1,discourage_A0,a,a,True,975,2,11252,trainPhase
1,1,discourage_A2,a,a,True,1340,2,11252,trainPhase
2,1,discourage_A1,a,a,True,2101,2,11252,trainPhase
3,1,discourage_A3,a,a,True,978,2,11252,trainPhase
4,1,discourage_B3,b,b,True,1393,2,11252,trainPhase
5,1,discourage_B2,b,a,False,1531,2,11252,trainPhase
6,1,discourage_B1,b,b,True,4672,2,11252,trainPhase
7,1,discourage_B0,b,b,True,1505,2,11252,trainPhase
0,2,discourage_A2,a,a,True,2421,2,11252,trainPhase
1,2,discourage_A0,a,a,True,721,2,11252,trainPhase
2,2,discourage_A3,a,a,True,986,2,11252,trainPhase
3,2,discourage_B2,b,b,True,1262,2,11252,trainPhase
4,2,discourage_B0,b,b,True,822,2,11252,trainPhase
5,2,discourage_B3,b,a,False,897,2,11252,trainPhase
6,2,discourage_A1,a,a,True,1036,2,11252,trainPhase
7,2,discourage_B1,b,a,False,768,2,11252,trainPhase
0,3,discourage_A0,a,a,True,737,2,11252,trainPhase
1,3,discourage_B3,b,b,True,1741,2,11252,trainPhase
2,3,discourage_B2,b,a,False,734,2,11252,trainPhase
3,3,discourage_A1,a,a,True,751,2,11252,trainPhase
4,3,discourage_A2,a,a,True,720,2,11252,trainPhase
5,3,discourage_B1,b,b,True,1150,2,11252,trainPhase
6,3,discourage_A3,a,a,True,741,2,11252,trainPhase
7,3,discourage_B0,b,b,True,1428,2,11252,trainPhase
0,4,discourage_B0,b,b,True,1149,2,11252,trainPhase
1,4,discourage_A2,a,a,True,714,2,11252,trainPhase
2,4,discourage_A0,a,b,False,1147,2,11252,trainPhase
3,4,discourage_B2,b,a,False,1453,2,11252,trainPhase
4,4,discourage_B1,b,b,True,1414,2,11252,trainPhase
5,4,discourage_A1,a,a,True,1561,2,11252,trainPhase
6,4,discourage_A3,a,a,True,1033,2,11252,trainPhase
7,4,discourage_B3,b,b,True,1435,2,11252,trainPhase
0,5,discourage_A3,a,a,True,714,2,11252,trainPhase
1,5,discourage_B3,b,b,True,919,2,11252,trainPhase
2,5,discourage_B0,b,b,True,943,2,11252,trainPhase
3,5,discourage_A0,a,b,False,1032,2,11252,trainPhase
4,5,discourage_A2,a,a,True,1025,2,11252,trainPhase
5,5,discourage_B2,b,a,False,1018,2,11252,trainPhase
6,5,discourage_B1,b,b,True,796,2,11252,trainPhase
7,5,discourage_A1,a,a,True,917,2,11252,trainPhase
0,6,discourage_A0,a,b,False,4246,2,11252,trainPhase
1,6,discourage_A3,a,a,True,925,2,11252,trainPhase
2,6,discourage_B0,b,b,True,1059,2,11252,trainPhase
3,6,discourage_B2,b,a,False,5420,2,11252,trainPhase
4,6,discourage_B3,b,a,False,889,2,11252,trainPhase
5,6,discourage_A1,a,a,True,1281,2,11252,trainPhase
6,6,discourage_A2,a,a,True,1447,2,11252,trainPhase
7,6,discourage_B1,b,b,True,895,2,11252,trainPhase
0,7,discourage_B3,b,a,False,889,2,11252,trainPhase
1,7,discourage_B1,b,b,True,1781,2,11252,trainPhase
2,7,discourage_A2,a,a,True,718,2,11252,trainPhase
3,7,discourage_A3,a,a,True,712,2,11252,trainPhase
4,7,discourage_A1,a,a,True,772,2,11252,trainPhase
5,7,discourage_B0,b,b,True,3091,2,11252,trainPhase
6,7,discourage_B2,b,a,False,816,2,11252,trainPhase
7,7,discourage_A0,a,a,True,778,2,11252,trainPhase
0,8,discourage_B2,b,b,True,1093,2,11252,trainPhase
1,8,discourage_A1,a,a,True,722,2,11252,trainPhase
2,8,discourage_A2,a,a,True,665,2,11252,trainPhase
3,8,discourage_B0,b,b,True,863,2,11252,trainPhase
4,8,discourage_B3,b,b,True,1326,2,11252,trainPhase
5,8,discourage_A0,a,a,True,809,2,11252,trainPhase
6,8,discourage_A3,a,a,True,1304,2,11252,trainPhase
7,8,discourage_B1,b,b,True,746,2,11252,trainPhase
0,9,discourage_A3,a,a,True,677,2,11252,trainPhase
1,9,discourage_A2,a,a,True,636,2,11252,trainPhase
2,9,discourage_B2,b,b,True,1378,2,11252,trainPhase
3,9,discourage_B3,b,b,True,1019,2,11252,trainPhase
4,9,discourage_B1,b,b,True,860,2,11252,trainPhase
5,9,discourage_A1,a,a,True,1225,2,11252,trainPhase
0,0,discourage_X5,x,a,False,2123,2,11252,subTestPhase
1,0,discourage_X4,x,a,False,1893,2,11252,subTestPhase
2,0,discourage_A2,a,a,True,1341,2,11252,subTestPhase
3,0,discourage_A1,a,a,True,1649,2,11252,subTestPhase
4,0,discourage_B2,b,b,True,1146,2,11252,subTestPhase
5,0,discourage_X2,x,a,False,1088,2,11252,subTestPhase
6,0,discourage_X7,x,a,False,726,2,11252,subTestPhase
7,0,discourage_B0,b,b,True,999,2,11252,subTestPhase
8,0,discourage_X8,x,a,False,894,2,11252,subTestPhase
9,0,discourage_X6,x,a,False,760,2,11252,subTestPhase
10,0,discourage_X0,x,a,False,720,2,11252,subTestPhase
11,0,discourage_X3,x,a,False,725,2,11252,subTestPhase
12,0,discourage_A0,a,a,True,847,2,11252,subTestPhase
13,0,discourage_B3,b,b,True,845,2,11252,subTestPhase
14,0,discourage_X1,x,a,False,737,2,11252,subTestPhase
15,0,discourage_B1,b,b,True,910,2,11252,subTestPhase
16,0,discourage_A3,a,a,True,1859,2,11252,subTestPhase
0,0,discourage_Z3,z,b,False,1914,2,11252,testPhase
1,0,discourage_B0,b,b,True,926,2,11252,testPhase
2,0,discourage_X7,x,a,False,1780,2,11252,testPhase
3,0,discourage_W4,w,a,False,1636,2,11252,testPhase
4,0,discourage_A3,a,a,True,2024,2,11252,testPhase
5,0,discourage_X2,x,a,False,1063,2,11252,testPhase
6,0,discourage_Y8,y,b,False,940,2,11252,testPhase
7,0,discourage_X4,x,a,False,695,2,11252,testPhase
8,0,discourage_W0,w,a,False,1202,2,11252,testPhase
9,0,discourage_B2,b,b,True,1114,2,11252,testPhase
10,0,discourage_W3,w,a,False,851,2,11252,testPhase
11,0,discourage_W7,w,a,False,939,2,11252,testPhase
12,0,discourage_A2,a,a,True,1431,2,11252,testPhase
13,0,discourage_Y6,y,b,False,915,2,11252,testPhase
14,0,discourage_B1,b,b,True,1004,2,11252,testPhase
15,0,discourage_W5,w,a,False,1012,2,11252,testPhase
16,0,discourage_A0,a,a,True,5435,2,11252,testPhase
17,0,discourage_Z2,z,b,False,1471,2,11252,testPhase
18,0,discourage_X6,x,a,False,807,2,11252,testPhase
19,0,discourage_Y4,y,b,False,991,2,11252,testPhase
20,0,discourage_Z5,z,b,False,2109,2,11252,testPhase
21,0,discourage_Z4,z,b,False,1426,2,11252,testPhase
22,0,discourage_W6,w,a,False,1691,2,11252,testPhase
23,0,discourage_Z1,z,b,False,1769,2,11252,testPhase
24,0,discourage_X0,x,a,False,845,2,11252,testPhase
25,0,discourage_X1,x,a,False,720,2,11252,testPhase
26,0,discourage_W2,w,a,False,669,2,11252,testPhase
27,0,discourage_Y0,y,b,False,1018,2,11252,testPhase
28,0,discourage_Y5,y,b,False,858,2,11252,testPhase
29,0,discourage_Z8,z,b,False,2265,2,11252,testPhase
30,0,discourage_Y1,y,b,False,1090,2,11252,testPhase
31,0,discourage_A1,a,a,True,734,2,11252,testPhase
32,0,discourage_Y7,y,b,False,1538,2,11252,testPhase
33,0,discourage_B3,b,b,True,1439,2,11252,testPhase
34,0,discourage_Z0,z,b,False,755,2,11252,testPhase
35,0,discourage_Y2,y,b,False,684,2,11252,testPhase
36,0,discourage_Y3,y,b,False,854,2,11252,testPhase
37,0,discourage_Z7,z,b,False,1448,2,11252,testPhase
38,0,discourage_X3,x,a,False,1871,2,11252,testPhase
39,0,discourage_W1,w,a,False,1107,2,11252,testPhase
40,0,discourage_X8,x,a,False,664,2,11252,testPhase
41,0,discourage_X5,x,a,False,717,2,11252,testPhase
42,0,discourage_W8,w,a,False,6410,2,11252,testPhase
43,0,discourage_Z6,z,b,False,4891,2,11252,testPhase
0,0,discourage_A3,a,b,False,4587,2,11254,trainPhase
1,0,discourage_B0,b,b,True,1299,2,11254,trainPhase
2,0,discourage_A0,a,a,True,1437,2,11254,trainPhase
3,0,discourage_A1,a,b,False,2994,2,11254,trainPhase
4,0,discourage_A2,a,a,True,2430,2,11254,trainPhase
5,0,discourage_B2,b,b,True,1190,2,11254,trainPhase
6,0,discourage_B1,b,b,True,1132,2,11254,trainPhase
7,0,discourage_B3,b,b,True,2788,2,11254,trainPhase
0,1,discourage_A2,a,a,True,1102,2,11254,trainPhase
1,1,discourage_A0,a,a,True,1002,2,11254,trainPhase
2,1,discourage_B3,b,b,True,1376,2,11254,trainPhase
3,1,discourage_A3,a,a,True,1302,2,11254,trainPhase
4,1,discourage_B1,b,b,True,1390,2,11254,trainPhase
5,1,discourage_A1,a,a,True,917,2,11254,trainPhase
6,1,discourage_B2,b,b,True,1347,2,11254,trainPhase
7,1,discourage_B0,b,b,True,946,2,11254,trainPhase
0,2,discourage_B2,b,b,True,1381,2,11254,trainPhase
1,2,discourage_A3,a,a,True,1376,2,11254,trainPhase
2,2,discourage_A1,a,a,True,1055,2,11254,trainPhase
0,0,discourage_X6,x,a,False,3039,2,11254,subTestPhase
1,0,discourage_A0,a,a,True,2065,2,11254,subTestPhase
2,0,discourage_X7,x,a,False,1514,2,11254,subTestPhase
3,0,discourage_A1,a,a,True,1152,2,11254,subTestPhase
4,0,discourage_X3,x,a,False,1633,2,11254,subTestPhase
5,0,discourage_X5,x,a,False,956,2,11254,subTestPhase
6,0,discourage_A2,a,a,True,1735,2,11254,subTestPhase
7,0,discourage_B0,b,b,True,1011,2,11254,subTestPhase
8,0,discourage_B1,b,b,True,838,2,11254,subTestPhase
9,0,discourage_X8,x,a,False,1064,2,11254,subTestPhase
10,0,discourage_B2,b,b,True,915,2,11254,subTestPhase
11,0,discourage_X1,x,a,False,948,2,11254,subTestPhase
12,0,discourage_X0,x,a,False,750,2,11254,subTestPhase
13,0,discourage_B3,b,b,True,842,2,11254,subTestPhase
14,0,discourage_X2,x,a,False,895,2,11254,subTestPhase
15,0,discourage_A3,a,a,True,1608,2,11254,subTestPhase
16,0,discourage_X4,x,a,False,778,2,11254,subTestPhase
0,0,discourage_X1,x,a,False,1215,2,11254,testPhase
1,0,discourage_Z2,z,a,False,2246,2,11254,testPhase
2,0,discourage_W1,w,a,False,1528,2,11254,testPhase
3,0,discourage_Y6,y,b,False,993,2,11254,testPhase
4,0,discourage_Z4,z,a,False,933,2,11254,testPhase
5,0,discourage_Y2,y,b,False,700,2,11254,testPhase
6,0,discourage_X2,x,a,False,1032,2,11254,testPhase
7,0,discourage_X4,x,a,False,810,2,11254,testPhase
8,0,discourage_W6,w,a,False,1102,2,11254,testPhase
9,0,discourage_X0,x,a,False,894,2,11254,testPhase
10,0,discourage_Y0,y,b,False,909,2,11254,testPhase
11,0,discourage_Z0,z,a,False,2539,2,11254,testPhase
12,0,discourage_Z8,z,a,False,756,2,11254,testPhase
13,0,discourage_W7,w,b,False,2058,2,11254,testPhase
14,0,discourage_A1,a,a,True,1894,2,11254,testPhase
15,0,discourage_Y7,y,b,False,1017,2,11254,testPhase
16,0,discourage_X7,x,a,False,697,2,11254,testPhase
17,0,discourage_B3,b,b,True,1844,2,11254,testPhase
18,0,discourage_B0,b,b,True,2877,2,11254,testPhase
19,0,discourage_Y4,y,b,False,1115,2,11254,testPhase
20,0,discourage_X6,x,a,False,895,2,11254,testPhase
21,0,discourage_W2,w,a,False,1575,2,11254,testPhase
22,0,discourage_X3,x,a,False,2314,2,11254,testPhase
23,0,discourage_Z3,z,b,False,1143,2,11254,testPhase
24,0,discourage_Y1,y,b,False,885,2,11254,testPhase
25,0,discourage_Z6,z,b,False,2593,2,11254,testPhase
26,0,discourage_Y3,y,b,False,1111,2,11254,testPhase
27,0,discourage_B2,b,a,False,3221,2,11254,testPhase
28,0,discourage_W0,w,b,False,1710,2,11254,testPhase
29,0,discourage_W8,w,a,False,862,2,11254,testPhase
30,0,discourage_Y5,y,b,False,832,2,11254,testPhase
31,0,discourage_A3,a,a,True,965,2,11254,testPhase
32,0,discourage_Z5,z,b,False,1182,2,11254,testPhase
33,0,discourage_Y8,y,b,False,1206,2,11254,testPhase
34,0,discourage_Z7,z,b,False,1045,2,11254,testPhase
35,0,discourage_W3,w,b,False,1886,2,11254,testPhase
36,0,discourage_A0,a,a,True,988,2,11254,testPhase
37,0,discourage_X8,x,a,False,877,2,11254,testPhase
38,0,discourage_W4,w,a,False,1029,2,11254,testPhase
39,0,discourage_B1,b,a,False,879,2,11254,testPhase
40,0,discourage_A2,a,a,True,3001,2,11254,testPhase
41,0,discourage_X5,x,a,False,1607,2,11254,testPhase
42,0,discourage_W5,w,b,False,1191,2,11254,testPhase
43,0,discourage_Z1,z,b,False,2183,2,11254,testPhase
0,0,discourage_A1,a,a,True,2311,2,11256,trainPhase
1,0,discourage_B0,b,a,False,3284,2,11256,trainPhase
2,0,discourage_A2,a,b,False,1225,2,11256,trainPhase
3,0,discourage_A3,a,b,False,1732,2,11256,trainPhase
4,0,discourage_B1,b,b,True,1381,2,11256,trainPhase
5,0,discourage_B3,b,a,False,1137,2,11256,trainPhase
6,0,discourage_A0,a,b,False,2180,2,11256,trainPhase
7,0,discourage_B2,b,a,False,1524,2,11256,trainPhase
0,1,discourage_B0,b,a,False,1777,2,11256,trainPhase
1,1,discourage_B1,b,a,False,1566,2,11256,trainPhase
2,1,discourage_A0,a,b,False,1295,2,11256,trainPhase
3,1,discourage_A1,a,a,True,1790,2,11256,trainPhase
4,1,discourage_A3,a,a,True,1901,2,11256,trainPhase
5,1,discourage_B2,b,b,True,998,2,11256,trainPhase
6,1,discourage_B3,b,b,True,1362,2,11256,trainPhase
7,1,discourage_A2,a,b,False,1460,2,11256,trainPhase
0,2,discourage_A2,a,a,True,1097,2,11256,trainPhase
1,2,discourage_A3,a,a,True,927,2,11256,trainPhase
2,2,discourage_B2,b,b,True,1135,2,11256,trainPhase
3,2,discourage_A1,a,a,True,2006,2,11256,trainPhase
4,2,discourage_B1,b,b,True,1214,2,11256,trainPhase
5,2,discourage_B3,b,b,True,1548,2,11256,trainPhase
6,2,discourage_B0,b,b,True,1469,2,11256,trainPhase
7,2,discourage_A0,a,b,False,1494,2,11256,trainPhase
0,3,discourage_A3,a,a,True,2697,2,11256,trainPhase
1,3,discourage_B2,b,b,True,2246,2,11256,trainPhase
2,3,discourage_A1,a,a,True,1706,2,11256,trainPhase
3,3,discourage_B3,b,b,True,1377,2,11256,trainPhase
4,3,discourage_B0,b,b,True,1494,2,11256,trainPhase
5,3,discourage_B1,b,b,True,1500,2,11256,trainPhase
6,3,discourage_A2,a,a,True,1130,2,11256,trainPhase
7,3,discourage_A0,a,a,True,1284,2,11256,trainPhase
0,4,discourage_A0,a,a,True,1235,2,11256,trainPhase
1,4,discourage_B0,b,b,True,1137,2,11256,trainPhase
2,4,discourage_B3,b,b,True,2611,2,11256,trainPhase
3,4,discourage_B1,b,b,True,1015,2,11256,trainPhase
4,4,discourage_B2,b,b,True,1220,2,11256,trainPhase
5,4,discourage_A2,a,a,True,914,2,11256,trainPhase
6,4,discourage_A3,a,a,True,1094,2,11256,trainPhase
0,0,discourage_A1,a,a,True,1623,2,11256,subTestPhase
1,0,discourage_X4,x,a,False,1471,2,11256,subTestPhase
2,0,discourage_B3,b,b,True,892,2,11256,subTestPhase
3,0,discourage_X3,x,a,False,1742,2,11256,subTestPhase
4,0,discourage_X5,x,a,False,958,2,11256,subTestPhase
5,0,discourage_X0,x,b,False,1625,2,11256,subTestPhase
6,0,discourage_A2,a,a,True,1088,2,11256,subTestPhase
7,0,discourage_X1,x,a,False,949,2,11256,subTestPhase
8,0,discourage_B0,b,b,True,813,2,11256,subTestPhase
9,0,discourage_X7,x,a,False,1342,2,11256,subTestPhase
10,0,discourage_X6,x,a,False,1032,2,11256,subTestPhase
11,0,discourage_A3,a,a,True,804,2,11256,subTestPhase
12,0,discourage_X2,x,a,False,750,2,11256,subTestPhase
13,0,discourage_B2,b,b,True,938,2,11256,subTestPhase
14,0,discourage_A0,a,a,True,1110,2,11256,subTestPhase
15,0,discourage_B1,b,b,True,1062,2,11256,subTestPhase
16,0,discourage_X8,x,a,False,813,2,11256,subTestPhase
0,0,discourage_Z8,z,a,False,781,2,11256,testPhase
1,0,discourage_Z5,z,a,False,790,2,11256,testPhase
2,0,discourage_Z6,z,a,False,3214,2,11256,testPhase
3,0,discourage_Y2,y,b,False,1144,2,11256,testPhase
4,0,discourage_Y4,y,b,False,742,2,11256,testPhase
5,0,discourage_W6,w,a,False,1250,2,11256,testPhase
6,0,discourage_Z4,z,a,False,1318,2,11256,testPhase
7,0,discourage_X0,x,a,False,1158,2,11256,testPhase
8,0,discourage_B0,b,b,True,2834,2,11256,testPhase
9,0,discourage_B1,b,b,True,1062,2,11256,testPhase
10,0,discourage_Z2,z,a,False,1312,2,11256,testPhase
11,0,discourage_Z3,z,b,False,1509,2,11256,testPhase
12,0,discourage_W1,w,a,False,1269,2,11256,testPhase
13,0,discourage_X2,x,a,False,2565,2,11256,testPhase
14,0,discourage_X5,x,a,False,894,2,11256,testPhase
15,0,discourage_W7,w,a,False,1667,2,11256,testPhase
16,0,discourage_W0,w,a,False,1691,2,11256,testPhase
17,0,discourage_Y8,y,b,False,1632,2,11256,testPhase
18,0,discourage_A3,a,a,True,1192,2,11256,testPhase
19,0,discourage_A0,a,a,True,1311,2,11256,testPhase
20,0,discourage_X4,x,a,False,1133,2,11256,testPhase
21,0,discourage_X8,x,a,False,1277,2,11256,testPhase
22,0,discourage_W4,w,a,False,1244,2,11256,testPhase
23,0,discourage_W5,w,a,False,1069,2,11256,testPhase
24,0,discourage_W3,w,a,False,1088,2,11256,testPhase
25,0,discourage_Z7,z,b,False,1293,2,11256,testPhase
26,0,discourage_W2,w,a,False,1015,2,11256,testPhase
27,0,discourage_B3,b,b,True,1910,2,11256,testPhase
28,0,discourage_B2,b,a,False,1464,2,11256,testPhase
29,0,discourage_A2,a,a,True,1370,2,11256,testPhase
30,0,discourage_Y1,y,b,False,1360,2,11256,testPhase
31,0,discourage_X6,x,a,False,940,2,11256,testPhase
32,0,discourage_Y7,y,b,False,1887,2,11256,testPhase
33,0,discourage_X1,x,a,False,1025,2,11256,testPhase
34,0,discourage_Y3,y,b,False,1352,2,11256,testPhase
35,0,discourage_Y6,y,b,False,1179,2,11256,testPhase
36,0,discourage_Z0,z,b,False,1356,2,11256,testPhase
37,0,discourage_A1,a,a,True,1565,2,11256,testPhase
38,0,discourage_Y0,y,b,False,1069,2,11256,testPhase
39,0,discourage_X3,x,a,False,2306,2,11256,testPhase
40,0,discourage_X7,x,a,False,846,2,11256,testPhase
41,0,discourage_Y5,y,b,False,885,2,11256,testPhase
42,0,discourage_W8,w,a,False,1321,2,11256,testPhase
43,0,discourage_Z1,z,a,False,3073,2,11256,testPhase
0,0,discourage_B3,b,b,True,2828,2,11258,trainPhase
1,0,discourage_A1,a,b,False,3181,2,11258,trainPhase
2,0,discourage_B2,b,b,True,1446,2,11258,trainPhase
3,0,discourage_A0,a,a,True,4587,2,11258,trainPhase
4,0,discourage_B0,b,b,True,1233,2,11258,trainPhase
5,0,discourage_A3,a,b,False,2011,2,11258,trainPhase
6,0,discourage_A2,a,b,False,3063,2,11258,trainPhase
7,0,discourage_B1,b,b,True,4722,2,11258,trainPhase
0,1,discourage_A3,a,a,True,1111,2,11258,trainPhase
1,1,discourage_A1,a,b,False,5476,2,11258,trainPhase
2,1,discourage_B3,b,b,True,1494,2,11258,trainPhase
3,1,discourage_A2,a,a,True,1315,2,11258,trainPhase
4,1,discourage_B1,b,b,True,1003,2,11258,trainPhase
5,1,discourage_B0,b,b,True,1706,2,11258,trainPhase
6,1,discourage_B2,b,b,True,1473,2,11258,trainPhase
7,1,discourage_A0,a,a,True,2557,2,11258,trainPhase
0,2,discourage_B3,b,b,True,1205,2,11258,trainPhase
1,2,discourage_B2,b,b,True,1619,2,11258,trainPhase
2,2,discourage_A0,a,a,True,1566,2,11258,trainPhase
3,2,discourage_B0,b,b,True,962,2,11258,trainPhase
4,2,discourage_B1,b,b,True,1683,2,11258,trainPhase
5,2,discourage_A1,a,a,True,1922,2,11258,trainPhase
6,2,discourage_A2,a,a,True,1385,2,11258,trainPhase
7,2,discourage_A3,a,a,True,1142,2,11258,trainPhase
0,3,discourage_B1,b,b,True,1038,2,11258,trainPhase
0,0,discourage_X8,x,a,False,1861,2,11258,subTestPhase
1,0,discourage_B1,b,b,True,2009,2,11258,subTestPhase
2,0,discourage_X1,x,a,False,1467,2,11258,subTestPhase
3,0,discourage_B3,b,b,True,914,2,11258,subTestPhase
4,0,discourage_B2,b,b,True,1039,2,11258,subTestPhase
5,0,discourage_X5,x,a,False,947,2,11258,subTestPhase
6,0,discourage_B0,b,b,True,773,2,11258,subTestPhase
7,0,discourage_A3,a,a,True,985,2,11258,subTestPhase
8,0,discourage_X4,x,a,False,1020,2,11258,subTestPhase
9,0,discourage_X2,x,a,False,919,2,11258,subTestPhase
10,0,discourage_X3,x,a,False,2304,2,11258,subTestPhase
11,0,discourage_X7,x,a,False,1294,2,11258,subTestPhase
12,0,discourage_A2,a,a,True,1803,2,11258,subTestPhase
13,0,discourage_X6,x,a,False,1291,2,11258,subTestPhase
14,0,discourage_A1,a,a,True,965,2,11258,subTestPhase
15,0,discourage_A0,a,a,True,1002,2,11258,subTestPhase
16,0,discourage_X0,x,a,False,2941,2,11258,subTestPhase
0,0,discourage_Z4,z,a,False,2971,2,11258,testPhase
1,0,discourage_Y5,y,b,False,1169,2,11258,testPhase
2,0,discourage_Y1,y,b,False,761,2,11258,testPhase
3,0,discourage_B2,b,b,True,997,2,11258,testPhase
4,0,discourage_Z0,z,b,False,3182,2,11258,testPhase
5,0,discourage_A2,a,a,True,1991,2,11258,testPhase
6,0,discourage_Z3,z,b,False,1777,2,11258,testPhase
7,0,discourage_Y0,y,b,False,1398,2,11258,testPhase
8,0,discourage_W2,w,a,False,1788,2,11258,testPhase
9,0,discourage_Z8,z,a,False,1059,2,11258,testPhase
10,0,discourage_Z5,z,a,False,1126,2,11258,testPhase
11,0,discourage_X6,x,a,False,1932,2,11258,testPhase
12,0,discourage_X0,x,a,False,1158,2,11258,testPhase
13,0,discourage_X4,x,a,False,950,2,11258,testPhase
14,0,discourage_Y7,y,b,False,1699,2,11258,testPhase
15,0,discourage_X2,x,a,False,2443,2,11258,testPhase
16,0,discourage_X8,x,a,False,892,2,11258,testPhase
17,0,discourage_X7,x,a,False,1177,2,11258,testPhase
18,0,discourage_Z1,z,a,False,4763,2,11258,testPhase
19,0,discourage_W4,w,b,False,1227,2,11258,testPhase
20,0,discourage_A0,a,a,True,1627,2,11258,testPhase
21,0,discourage_Y3,y,b,False,852,2,11258,testPhase
22,0,discourage_Y6,y,b,False,787,2,11258,testPhase
23,0,discourage_W8,w,a,False,1269,2,11258,testPhase
24,0,discourage_Z2,z,b,False,3109,2,11258,testPhase
25,0,discourage_W3,w,a,False,2031,2,11258,testPhase
26,0,discourage_X5,x,a,False,1054,2,11258,testPhase
27,0,discourage_Y8,y,b,False,828,2,11258,testPhase
28,0,discourage_A1,a,a,True,1188,2,11258,testPhase
29,0,discourage_Y4,y,b,False,972,2,11258,testPhase
30,0,discourage_W5,w,a,False,1369,2,11258,testPhase
31,0,discourage_X3,x,a,False,1694,2,11258,testPhase
32,0,discourage_W6,w,a,False,1929,2,11258,testPhase
33,0,discourage_W7,w,a,False,870,2,11258,testPhase
34,0,discourage_B0,b,b,True,7822,2,11258,testPhase
35,0,discourage_X1,x,a,False,995,2,11258,testPhase
36,0,discourage_B3,b,b,True,947,2,11258,testPhase
37,0,discourage_Z6,z,a,False,1650,2,11258,testPhase
38,0,discourage_A3,a,a,True,1153,2,11258,testPhase
39,0,discourage_W0,w,a,False,1812,2,11258,testPhase
40,0,discourage_W1,w,a,False,1123,2,11258,testPhase
41,0,discourage_Y2,y,b,False,3782,2,11258,testPhase
42,0,discourage_B1,b,b,True,845,2,11258,testPhase
43,0,discourage_Z7,z,a,False,3652,2,11258,testPhase
0,0,discourage_A2,a,a,True,1952,2,11260,trainPhase
1,0,discourage_B1,b,a,False,1862,2,11260,trainPhase
2,0,discourage_B3,b,b,True,3391,2,11260,trainPhase
3,0,discourage_B2,b,a,False,1525,2,11260,trainPhase
4,0,discourage_A0,a,a,True,1941,2,11260,trainPhase
5,0,discourage_A3,a,a,True,1553,2,11260,trainPhase
6,0,discourage_B0,b,b,True,1283,2,11260,trainPhase
7,0,discourage_A1,a,a,True,1028,2,11260,trainPhase
0,1,discourage_B0,b,b,True,708,2,11260,trainPhase
1,1,discourage_A1,a,a,True,789,2,11260,trainPhase
2,1,discourage_B3,b,b,True,822,2,11260,trainPhase
3,1,discourage_A2,a,a,True,1004,2,11260,trainPhase
4,1,discourage_A3,a,a,True,1158,2,11260,trainPhase
5,1,discourage_A0,a,a,True,1278,2,11260,trainPhase
6,1,discourage_B1,b,b,True,1087,2,11260,trainPhase
7,1,discourage_B2,b,a,False,1084,2,11260,trainPhase
0,2,discourage_A2,a,a,True,1125,2,11260,trainPhase
1,2,discourage_B3,b,b,True,964,2,11260,trainPhase
2,2,discourage_A0,a,a,True,725,2,11260,trainPhase
3,2,discourage_A3,a,a,True,918,2,11260,trainPhase
4,2,discourage_B2,b,b,True,1021,2,11260,trainPhase
5,2,discourage_A1,a,a,True,933,2,11260,trainPhase
6,2,discourage_B0,b,b,True,534,2,11260,trainPhase
7,2,discourage_B1,b,b,True,829,2,11260,trainPhase
0,3,discourage_B1,b,b,True,766,2,11260,trainPhase
1,3,discourage_A2,a,a,True,933,2,11260,trainPhase
2,3,discourage_A3,a,a,True,621,2,11260,trainPhase
3,3,discourage_B0,b,b,True,1102,2,11260,trainPhase
4,3,discourage_A1,a,a,True,631,2,11260,trainPhase
5,3,discourage_B2,b,b,True,830,2,11260,trainPhase
6,3,discourage_A0,a,a,True,947,2,11260,trainPhase
0,0,discourage_A0,a,a,True,1469,2,11260,subTestPhase
1,0,discourage_B0,b,b,True,1201,2,11260,subTestPhase
2,0,discourage_X7,x,a,False,1456,2,11260,subTestPhase
3,0,discourage_X2,x,a,False,1302,2,11260,subTestPhase
4,0,discourage_X3,x,a,False,1366,2,11260,subTestPhase
5,0,discourage_A3,a,a,True,1078,2,11260,subTestPhase
6,0,discourage_A2,a,a,True,790,2,11260,subTestPhase
7,0,discourage_X5,x,a,False,894,2,11260,subTestPhase
8,0,discourage_X6,x,a,False,871,2,11260,subTestPhase
9,0,discourage_B2,b,b,True,853,2,11260,subTestPhase
10,0,discourage_X1,x,a,False,731,2,11260,subTestPhase
11,0,discourage_X0,x,a,False,1128,2,11260,subTestPhase
12,0,discourage_X8,x,a,False,821,2,11260,subTestPhase
13,0,discourage_A1,a,a,True,654,2,11260,subTestPhase
14,0,discourage_B3,b,b,True,662,2,11260,subTestPhase
15,0,discourage_X4,x,a,False,952,2,11260,subTestPhase
16,0,discourage_B1,b,b,True,573,2,11260,subTestPhase
0,0,discourage_A0,a,a,True,785,2,11260,testPhase
1,0,discourage_X1,x,a,False,724,2,11260,testPhase
2,0,discourage_Z2,z,b,False,1269,2,11260,testPhase
3,0,discourage_W4,w,a,False,800,2,11260,testPhase
4,0,discourage_B1,b,b,True,550,2,11260,testPhase
5,0,discourage_Z8,z,a,False,485,2,11260,testPhase
6,0,discourage_Y4,y,b,False,528,2,11260,testPhase
7,0,discourage_Z7,z,a,False,1484,2,11260,testPhase
8,0,discourage_A2,a,a,True,1566,2,11260,testPhase
9,0,discourage_Z1,z,a,False,1175,2,11260,testPhase
10,0,discourage_X2,x,a,False,773,2,11260,testPhase
11,0,discourage_W5,w,a,False,1164,2,11260,testPhase
12,0,discourage_W0,w,a,False,861,2,11260,testPhase
13,0,discourage_X0,x,b,False,716,2,11260,testPhase
14,0,discourage_Y6,y,b,False,1665,2,11260,testPhase
15,0,discourage_X6,x,a,False,1019,2,11260,testPhase
16,0,discourage_Y0,y,b,False,753,2,11260,testPhase
17,0,discourage_Y7,y,b,False,926,2,11260,testPhase
18,0,discourage_Y5,y,b,False,918,2,11260,testPhase
19,0,discourage_X7,x,a,False,694,2,11260,testPhase
20,0,discourage_A3,a,a,True,1086,2,11260,testPhase
21,0,discourage_B3,b,a,False,3289,2,11260,testPhase
22,0,discourage_X4,x,a,False,963,2,11260,testPhase
23,0,discourage_Z6,z,a,False,991,2,11260,testPhase
24,0,discourage_Y1,y,b,False,782,2,11260,testPhase
25,0,discourage_B0,b,a,False,1006,2,11260,testPhase
26,0,discourage_Y2,y,b,False,884,2,11260,testPhase
27,0,discourage_W3,w,a,False,907,2,11260,testPhase
28,0,discourage_A1,a,a,True,808,2,11260,testPhase
29,0,discourage_Y8,y,b,False,665,2,11260,testPhase
30,0,discourage_Y3,y,b,False,588,2,11260,testPhase
31,0,discourage_Z4,z,a,False,623,2,11260,testPhase
32,0,discourage_Z5,z,a,False,646,2,11260,testPhase
33,0,discourage_B2,b,a,False,541,2,11260,testPhase
34,0,discourage_W2,w,b,False,711,2,11260,testPhase
35,0,discourage_X5,x,a,False,773,2,11260,testPhase
36,0,discourage_W6,w,a,False,781,2,11260,testPhase
37,0,discourage_W1,w,a,False,735,2,11260,testPhase
38,0,discourage_W8,w,a,False,640,2,11260,testPhase
39,0,discourage_W7,w,a,False,477,2,11260,testPhase
40,0,discourage_X8,x,a,False,645,2,11260,testPhase
41,0,discourage_X3,x,a,False,502,2,11260,testPhase
42,0,discourage_Z0,z,a,False,2293,2,11260,testPhase
43,0,discourage_Z3,z,b,False,1030,2,11260,testPhase
0,0,discourage_B3,b,a,False,3524,2,11262,trainPhase
1,0,discourage_A2,a,b,False,1308,2,11262,trainPhase
2,0,discourage_A0,a,b,False,1619,2,11262,trainPhase
3,0,discourage_A3,a,a,True,2612,2,11262,trainPhase
4,0,discourage_B1,b,b,True,1192,2,11262,trainPhase
5,0,discourage_A1,a,a,True,1878,2,11262,trainPhase
6,0,discourage_B2,b,b,True,1556,2,11262,trainPhase
7,0,discourage_B0,b,b,True,1741,2,11262,trainPhase
0,1,discourage_B2,b,b,True,1102,2,11262,trainPhase
1,1,discourage_A2,a,a,True,1629,2,11262,trainPhase
2,1,discourage_A3,a,a,True,1094,2,11262,trainPhase
3,1,discourage_B0,b,b,True,2461,2,11262,trainPhase
4,1,discourage_A0,a,a,True,1238,2,11262,trainPhase
5,1,discourage_A1,a,a,True,1244,2,11262,trainPhase
6,1,discourage_B1,b,b,True,1134,2,11262,trainPhase
7,1,discourage_B3,b,b,True,1121,2,11262,trainPhase
0,2,discourage_B2,b,b,True,1965,2,11262,trainPhase
1,2,discourage_A2,a,a,True,948,2,11262,trainPhase
0,0,discourage_X2,x,a,False,2133,2,11262,subTestPhase
1,0,discourage_B1,b,b,True,1250,2,11262,subTestPhase
2,0,discourage_A2,a,a,True,1839,2,11262,subTestPhase
3,0,discourage_B2,b,b,True,1293,2,11262,subTestPhase
4,0,discourage_A0,a,a,True,1152,2,11262,subTestPhase
5,0,discourage_X7,x,a,False,1563,2,11262,subTestPhase
6,0,discourage_B3,b,b,True,1794,2,11262,subTestPhase
7,0,discourage_X1,x,a,False,1750,2,11262,subTestPhase
8,0,discourage_X6,x,a,False,1932,2,11262,subTestPhase
9,0,discourage_X3,x,a,False,3650,2,11262,subTestPhase
10,0,discourage_A3,a,a,True,2229,2,11262,subTestPhase
11,0,discourage_B0,b,b,True,844,2,11262,subTestPhase
12,0,discourage_A1,a,a,True,1333,2,11262,subTestPhase
13,0,discourage_X8,x,a,False,1358,2,11262,subTestPhase
14,0,discourage_X4,x,a,False,1180,2,11262,subTestPhase
15,0,discourage_X0,x,a,False,2122,2,11262,subTestPhase
16,0,discourage_X5,x,a,False,963,2,11262,subTestPhase
0,0,discourage_W1,w,b,False,1768,2,11262,testPhase
1,0,discourage_Z8,z,b,False,1599,2,11262,testPhase
2,0,discourage_Y7,y,b,False,1309,2,11262,testPhase
3,0,discourage_X8,x,a,False,2407,2,11262,testPhase
4,0,discourage_X5,x,a,False,1037,2,11262,testPhase
5,0,discourage_Y5,y,b,False,1060,2,11262,testPhase
6,0,discourage_B3,b,b,True,1190,2,11262,testPhase
7,0,discourage_W2,w,b,False,1830,2,11262,testPhase
8,0,discourage_A1,a,a,True,1550,2,11262,testPhase
9,0,discourage_Y4,y,b,False,909,2,11262,testPhase
10,0,discourage_B1,b,b,True,1531,2,11262,testPhase
11,0,discourage_W4,w,b,False,1436,2,11262,testPhase
12,0,discourage_W0,w,b,False,4213,2,11262,testPhase
13,0,discourage_Y6,y,b,False,1320,2,11262,testPhase
14,0,discourage_Y8,y,b,False,1502,2,11262,testPhase
15,0,discourage_W8,w,a,False,975,2,11262,testPhase
16,0,discourage_X3,x,a,False,1340,2,11262,testPhase
17,0,discourage_Z3,z,a,False,2123,2,11262,testPhase
18,0,discourage_X7,x,a,False,754,2,11262,testPhase
19,0,discourage_Z0,z,a,False,1205,2,11262,testPhase
20,0,discourage_Z1,z,a,False,2278,2,11262,testPhase
21,0,discourage_Y3,y,b,False,904,2,11262,testPhase
22,0,discourage_W6,w,a,False,1070,2,11262,testPhase
23,0,discourage_A3,a,b,False,5134,2,11262,testPhase
24,0,discourage_Z4,z,b,False,1174,2,11262,testPhase
25,0,discourage_W3,w,b,False,3038,2,11262,testPhase
26,0,discourage_X1,x,a,False,782,2,11262,testPhase
27,0,discourage_A0,a,a,True,2365,2,11262,testPhase
28,0,discourage_Z5,z,a,False,3935,2,11262,testPhase
29,0,discourage_B2,b,b,True,3452,2,11262,testPhase
30,0,discourage_W5,w,b,False,2390,2,11262,testPhase
31,0,discourage_Z6,z,a,False,1365,2,11262,testPhase
32,0,discourage_B0,b,b,True,2233,2,11262,testPhase
33,0,discourage_Y2,y,b,False,1476,2,11262,testPhase
34,0,discourage_X6,x,a,False,949,2,11262,testPhase
35,0,discourage_Z2,z,b,False,3941,2,11262,testPhase
36,0,discourage_Z7,z,b,False,1980,2,11262,testPhase
37,0,discourage_A2,a,a,True,1751,2,11262,testPhase
38,0,discourage_Y1,y,b,False,1062,2,11262,testPhase
39,0,discourage_X4,x,a,False,782,2,11262,testPhase
40,0,discourage_Y0,y,b,False,1582,2,11262,testPhase
41,0,discourage_X2,x,a,False,780,2,11262,testPhase
42,0,discourage_X0,x,a,False,1176,2,11262,testPhase
43,0,discourage_W7,w,a,False,2646,2,11262,testPhase
0,0,discourage_A0,a,a,True,2280,2,11264,trainPhase
1,0,discourage_B2,b,b,True,1677,2,11264,trainPhase
2,0,discourage_B0,b,b,True,1415,2,11264,trainPhase
3,0,discourage_A1,a,a,True,956,2,11264,trainPhase
4,0,discourage_B3,b,b,True,1622,2,11264,trainPhase
5,0,discourage_B1,b,b,True,1186,2,11264,trainPhase
6,0,discourage_A2,a,b,False,959,2,11264,trainPhase
7,0,discourage_A3,a,a,True,1191,2,11264,trainPhase
0,1,discourage_A0,a,a,True,1189,2,11264,trainPhase
1,1,discourage_B3,b,a,False,1700,2,11264,trainPhase
2,1,discourage_A2,a,a,True,1737,2,11264,trainPhase
3,1,discourage_A1,a,a,True,1162,2,11264,trainPhase
4,1,discourage_B2,b,b,True,1459,2,11264,trainPhase
5,1,discourage_B0,b,b,True,947,2,11264,trainPhase
6,1,discourage_B1,b,b,True,1083,2,11264,trainPhase
7,1,discourage_A3,a,a,True,899,2,11264,trainPhase
0,2,discourage_A3,a,a,True,940,2,11264,trainPhase
1,2,discourage_B2,b,b,True,940,2,11264,trainPhase
2,2,discourage_B3,b,b,True,936,2,11264,trainPhase
3,2,discourage_A1,a,a,True,1120,2,11264,trainPhase
4,2,discourage_B1,b,b,True,1027,2,11264,trainPhase
5,2,discourage_B0,b,b,True,865,2,11264,trainPhase
6,2,discourage_A2,a,a,True,1623,2,11264,trainPhase
7,2,discourage_A0,a,a,True,936,2,11264,trainPhase
0,3,discourage_A1,a,a,True,880,2,11264,trainPhase
0,0,discourage_X2,x,a,False,1169,2,11264,subTestPhase
1,0,discourage_X7,x,a,False,1751,2,11264,subTestPhase
2,0,discourage_X5,x,a,False,2136,2,11264,subTestPhase
3,0,discourage_X1,x,a,False,1465,2,11264,subTestPhase
4,0,discourage_A1,a,a,True,1021,2,11264,subTestPhase
5,0,discourage_X0,x,a,False,1784,2,11264,subTestPhase
6,0,discourage_A0,a,a,True,821,2,11264,subTestPhase
7,0,discourage_A3,a,a,True,1459,2,11264,subTestPhase
8,0,discourage_B0,b,b,True,866,2,11264,subTestPhase
9,0,discourage_B1,b,b,True,875,2,11264,subTestPhase
10,0,discourage_B2,b,a,False,1435,2,11264,subTestPhase
11,0,discourage_X4,x,a,False,1072,2,11264,subTestPhase
12,0,discourage_X3,x,a,False,1393,2,11264,subTestPhase
13,0,discourage_X8,x,a,False,1019,2,11264,subTestPhase
14,0,discourage_X6,x,a,False,983,2,11264,subTestPhase
15,0,discourage_A2,a,a,True,910,2,11264,subTestPhase
16,0,discourage_B3,b,a,False,936,2,11264,subTestPhase
0,0,discourage_W5,w,b,False,1393,2,11264,testPhase
1,0,discourage_W4,w,a,False,3606,2,11264,testPhase
2,0,discourage_Y3,y,b,False,1239,2,11264,testPhase
3,0,discourage_Y5,y,b,False,1102,2,11264,testPhase
4,0,discourage_Z4,z,a,False,1078,2,11264,testPhase
5,0,discourage_Y1,y,b,False,890,2,11264,testPhase
6,0,discourage_A3,a,a,True,1294,2,11264,testPhase
7,0,discourage_A1,a,a,True,1271,2,11264,testPhase
8,0,discourage_W0,w,b,False,995,2,11264,testPhase
9,0,discourage_Z2,z,a,False,2179,2,11264,testPhase
10,0,discourage_Y2,y,b,False,2130,2,11264,testPhase
11,0,discourage_Y6,y,b,False,3199,2,11264,testPhase
12,0,discourage_Z3,z,a,False,892,2,11264,testPhase
13,0,discourage_X5,x,a,False,2431,2,11264,testPhase
14,0,discourage_Y8,y,b,False,740,2,11264,testPhase
15,0,discourage_A0,a,a,True,1335,2,11264,testPhase
16,0,discourage_A2,a,a,True,2037,2,11264,testPhase
17,0,discourage_W2,w,a,False,881,2,11264,testPhase
18,0,discourage_B2,b,a,False,2975,2,11264,testPhase
19,0,discourage_X0,x,a,False,943,2,11264,testPhase
20,0,discourage_Z0,z,a,False,3539,2,11264,testPhase
21,0,discourage_X7,x,a,False,845,2,11264,testPhase
22,0,discourage_X6,x,a,False,717,2,11264,testPhase
23,0,discourage_Z5,z,a,False,1064,2,11264,testPhase
24,0,discourage_W1,w,a,False,967,2,11264,testPhase
25,0,discourage_B3,b,a,False,1076,2,11264,testPhase
26,0,discourage_Y7,y,a,False,2593,2,11264,testPhase
27,0,discourage_B0,b,a,False,2166,2,11264,testPhase
28,0,discourage_Y0,y,b,False,930,2,11264,testPhase
29,0,discourage_X4,x,a,False,718,2,11264,testPhase
30,0,discourage_X8,x,a,False,848,2,11264,testPhase
31,0,discourage_W6,w,a,False,1421,2,11264,testPhase
32,0,discourage_X1,x,a,False,718,2,11264,testPhase
33,0,discourage_W8,w,a,False,967,2,11264,testPhase
34,0,discourage_X3,x,a,False,682,2,11264,testPhase
35,0,discourage_Z7,z,b,False,1034,2,11264,testPhase
36,0,discourage_W3,w,a,False,802,2,11264,testPhase
37,0,discourage_Z6,z,b,False,1399,2,11264,testPhase
38,0,discourage_W7,w,a,False,781,2,11264,testPhase
39,0,discourage_Y4,y,b,False,757,2,11264,testPhase
40,0,discourage_B1,b,b,True,2861,2,11264,testPhase
41,0,discourage_X2,x,a,False,1374,2,11264,testPhase
42,0,discourage_Z8,z,a,False,2734,2,11264,testPhase
43,0,discourage_Z1,z,a,False,1147,2,11264,testPhase
0,0,discourage_A3,a,b,False,5628,2,11266,trainPhase
1,0,discourage_B3,b,a,False,1426,2,11266,trainPhase
2,0,discourage_A1,a,a,True,2002,2,11266,trainPhase
3,0,discourage_A2,a,a,True,1650,2,11266,trainPhase
4,0,discourage_B0,b,b,True,904,2,11266,trainPhase
5,0,discourage_B2,b,b,True,1418,2,11266,trainPhase
6,0,discourage_B1,b,b,True,980,2,11266,trainPhase
7,0,discourage_A0,a,b,False,1140,2,11266,trainPhase
0,1,discourage_B0,b,b,True,1482,2,11266,trainPhase
1,1,discourage_A1,a,a,True,983,2,11266,trainPhase
2,1,discourage_B1,b,b,True,1206,2,11266,trainPhase
3,1,discourage_A0,a,a,True,1806,2,11266,trainPhase
4,1,discourage_B3,b,b,True,2342,2,11266,trainPhase
5,1,discourage_A3,a,a,True,2239,2,11266,trainPhase
6,1,discourage_B2,b,b,True,1677,2,11266,trainPhase
7,1,discourage_A2,a,a,True,1501,2,11266,trainPhase
0,2,discourage_A2,a,a,True,2081,2,11266,trainPhase
1,2,discourage_B0,b,b,True,1319,2,11266,trainPhase
2,2,discourage_B1,b,b,True,2250,2,11266,trainPhase
3,2,discourage_A3,a,a,True,1150,2,11266,trainPhase
4,2,discourage_B2,b,b,True,1318,2,11266,trainPhase
5,2,discourage_A0,a,a,True,1174,2,11266,trainPhase
6,2,discourage_A1,a,a,True,1525,2,11266,trainPhase
0,0,discourage_X6,x,a,False,2008,2,11266,subTestPhase
1,0,discourage_B2,b,b,True,1436,2,11266,subTestPhase
2,0,discourage_A2,a,a,True,1171,2,11266,subTestPhase
3,0,discourage_X7,x,a,False,1117,2,11266,subTestPhase
4,0,discourage_A1,a,a,True,829,2,11266,subTestPhase
5,0,discourage_X4,x,a,False,998,2,11266,subTestPhase
6,0,discourage_X8,x,a,False,1426,2,11266,subTestPhase
7,0,discourage_B3,b,b,True,1026,2,11266,subTestPhase
8,0,discourage_X2,x,a,False,1916,2,11266,subTestPhase
9,0,discourage_A3,a,a,True,1025,2,11266,subTestPhase
10,0,discourage_X1,x,a,False,1883,2,11266,subTestPhase
11,0,discourage_X0,x,b,False,1159,2,11266,subTestPhase
12,0,discourage_A0,a,a,True,1171,2,11266,subTestPhase
13,0,discourage_B0,b,b,True,933,2,11266,subTestPhase
14,0,discourage_B1,b,b,True,851,2,11266,subTestPhase
15,0,discourage_X5,x,a,False,1830,2,11266,subTestPhase
16,0,discourage_X3,x,a,False,2137,2,11266,subTestPhase
0,0,discourage_Y4,y,b,False,1208,2,11266,testPhase
1,0,discourage_Z4,z,a,False,2143,2,11266,testPhase
2,0,discourage_W5,w,a,False,2021,2,11266,testPhase
3,0,discourage_Z6,z,a,False,2257,2,11266,testPhase
4,0,discourage_B3,b,b,True,2613,2,11266,testPhase
5,0,discourage_W3,w,b,False,1014,2,11266,testPhase
6,0,discourage_W0,w,b,False,1255,2,11266,testPhase
7,0,discourage_Y6,y,b,False,1166,2,11266,testPhase
8,0,discourage_W6,w,b,False,1259,2,11266,testPhase
9,0,discourage_X1,x,a,False,1030,2,11266,testPhase
10,0,discourage_Z7,z,a,False,2366,2,11266,testPhase
11,0,discourage_X6,x,a,False,1381,2,11266,testPhase
12,0,discourage_W7,w,b,False,2309,2,11266,testPhase
13,0,discourage_Y0,y,b,False,971,2,11266,testPhase
14,0,discourage_Y2,y,b,False,750,2,11266,testPhase
15,0,discourage_Y8,y,b,False,1568,2,11266,testPhase
16,0,discourage_Z0,z,b,False,2164,2,11266,testPhase
17,0,discourage_W2,w,a,False,1773,2,11266,testPhase
18,0,discourage_B2,b,b,True,1186,2,11266,testPhase
19,0,discourage_Z8,z,a,False,1034,2,11266,testPhase
20,0,discourage_X5,x,a,False,1258,2,11266,testPhase
21,0,discourage_Y5,y,b,False,869,2,11266,testPhase
22,0,discourage_B1,b,b,True,1380,2,11266,testPhase
23,0,discourage_X2,x,a,False,1663,2,11266,testPhase
24,0,discourage_W8,w,a,False,1414,2,11266,testPhase
25,0,discourage_Y3,y,b,False,862,2,11266,testPhase
26,0,discourage_X7,x,b,False,1177,2,11266,testPhase
27,0,discourage_W1,w,b,False,1767,2,11266,testPhase
28,0,discourage_A2,a,a,True,1950,2,11266,testPhase
29,0,discourage_Z2,z,b,False,1862,2,11266,testPhase
30,0,discourage_B0,b,b,True,1836,2,11266,testPhase
31,0,discourage_Z5,z,a,False,2734,2,11266,testPhase
32,0,discourage_Z3,z,a,False,2057,2,11266,testPhase
33,0,discourage_Y7,y,b,False,1107,2,11266,testPhase
34,0,discourage_A1,a,b,False,1614,2,11266,testPhase
35,0,discourage_A0,a,a,True,1422,2,11266,testPhase
36,0,discourage_A3,a,a,True,2306,2,11266,testPhase
37,0,discourage_Y1,y,b,False,885,2,11266,testPhase
38,0,discourage_X3,x,a,False,3853,2,11266,testPhase
39,0,discourage_W4,w,b,False,4171,2,11266,testPhase
40,0,discourage_X4,x,a,False,1870,2,11266,testPhase
41,0,discourage_X8,x,a,False,1357,2,11266,testPhase
42,0,discourage_X0,x,b,False,1001,2,11266,testPhase
43,0,discourage_Z1,z,b,False,963,2,11266,testPhase
0,0,discourage_A1,a,b,False,2453,2,11131,trainPhase
1,0,discourage_B3,b,a,False,3831,2,11131,trainPhase
2,0,discourage_A2,a,b,False,2185,2,11131,trainPhase
3,0,discourage_B1,b,a,False,2096,2,11131,trainPhase
4,0,discourage_B0,b,b,True,2231,2,11131,trainPhase
5,0,discourage_A3,a,b,False,1330,2,11131,trainPhase
6,0,discourage_A0,a,b,False,1676,2,11131,trainPhase
7,0,discourage_B2,b,b,True,1590,2,11131,trainPhase
0,1,discourage_B3,b,a,False,1156,2,11131,trainPhase
1,1,discourage_B0,b,b,True,1094,2,11131,trainPhase
2,1,discourage_B2,b,b,True,1125,2,11131,trainPhase
3,1,discourage_B1,b,a,False,1841,2,11131,trainPhase
4,1,discourage_A2,a,a,True,1173,2,11131,trainPhase
5,1,discourage_A3,a,a,True,906,2,11131,trainPhase
6,1,discourage_A1,a,a,True,1356,2,11131,trainPhase
7,1,discourage_A0,a,a,True,990,2,11131,trainPhase
0,2,discourage_A0,a,a,True,1010,2,11131,trainPhase
1,2,discourage_A3,a,a,True,1900,2,11131,trainPhase
2,2,discourage_B0,b,b,True,1247,2,11131,trainPhase
3,2,discourage_B3,b,b,True,959,2,11131,trainPhase
4,2,discourage_B2,b,b,True,1018,2,11131,trainPhase
5,2,discourage_A1,a,a,True,918,2,11131,trainPhase
6,2,discourage_A2,a,a,True,1856,2,11131,trainPhase
7,2,discourage_B1,b,b,True,1349,2,11131,trainPhase
0,3,discourage_B1,b,b,True,1261,2,11131,trainPhase
1,3,discourage_B0,b,b,True,1247,2,11131,trainPhase
2,3,discourage_A3,a,a,True,1073,2,11131,trainPhase
0,0,discourage_X3,x,a,False,1693,2,11131,subTestPhase
1,0,discourage_A1,a,a,True,1111,2,11131,subTestPhase
2,0,discourage_X0,x,a,False,1342,2,11131,subTestPhase
3,0,discourage_X8,x,a,False,1007,2,11131,subTestPhase
4,0,discourage_X7,x,a,False,857,2,11131,subTestPhase
5,0,discourage_B0,b,b,True,1171,2,11131,subTestPhase
6,0,discourage_X2,x,a,False,797,2,11131,subTestPhase
7,0,discourage_X5,x,a,False,725,2,11131,subTestPhase
8,0,discourage_X1,x,a,False,741,2,11131,subTestPhase
9,0,discourage_X6,x,a,False,881,2,11131,subTestPhase
10,0,discourage_A0,a,a,True,1614,2,11131,subTestPhase
11,0,discourage_A2,a,a,True,1127,2,11131,subTestPhase
12,0,discourage_B3,b,a,False,837,2,11131,subTestPhase
13,0,discourage_X4,x,a,False,708,2,11131,subTestPhase
14,0,discourage_B1,b,b,True,1129,2,11131,subTestPhase
15,0,discourage_B2,b,b,True,932,2,11131,subTestPhase
16,0,discourage_A3,a,a,True,877,2,11131,subTestPhase
0,0,discourage_Z5,z,a,False,1386,2,11131,testPhase
1,0,discourage_X7,x,a,False,987,2,11131,testPhase
2,0,discourage_X6,x,a,False,808,2,11131,testPhase
3,0,discourage_Y0,y,b,False,1590,2,11131,testPhase
4,0,discourage_X3,x,a,False,940,2,11131,testPhase
5,0,discourage_B0,b,b,True,2901,2,11131,testPhase
6,0,discourage_B1,b,b,True,858,2,11131,testPhase
7,0,discourage_Y4,y,b,False,881,2,11131,testPhase
8,0,discourage_W8,w,a,False,1094,2,11131,testPhase
9,0,discourage_Z6,z,a,False,1950,2,11131,testPhase
10,0,discourage_A0,a,a,True,862,2,11131,testPhase
11,0,discourage_X2,x,a,False,742,2,11131,testPhase
12,0,discourage_W6,w,a,False,1940,2,11131,testPhase
13,0,discourage_Z0,z,a,False,1558,2,11131,testPhase
14,0,discourage_X5,x,a,False,830,2,11131,testPhase
15,0,discourage_X1,x,a,False,749,2,11131,testPhase
16,0,discourage_Z1,z,a,False,906,2,11131,testPhase
17,0,discourage_W7,w,a,False,1373,2,11131,testPhase
18,0,discourage_X0,x,a,False,772,2,11131,testPhase
19,0,discourage_Y3,y,b,False,917,2,11131,testPhase
20,0,discourage_Z8,z,a,False,1501,2,11131,testPhase
21,0,discourage_A1,a,a,True,1870,2,11131,testPhase
22,0,discourage_Y5,y,b,False,976,2,11131,testPhase
23,0,discourage_A2,a,a,True,952,2,11131,testPhase
24,0,discourage_B2,b,b,True,3266,2,11131,testPhase
25,0,discourage_A3,a,a,True,781,2,11131,testPhase
26,0,discourage_Y2,y,b,False,858,2,11131,testPhase
27,0,discourage_Z4,z,a,False,993,2,11131,testPhase
28,0,discourage_W5,w,a,False,2971,2,11131,testPhase
29,0,discourage_Z7,z,a,False,1206,2,11131,testPhase
30,0,discourage_W3,w,a,False,1445,2,11131,testPhase
31,0,discourage_W4,w,a,False,1543,2,11131,testPhase
32,0,discourage_Y6,y,b,False,942,2,11131,testPhase
33,0,discourage_W0,w,a,False,1718,2,11131,testPhase
34,0,discourage_Z3,z,a,False,1177,2,11131,testPhase
35,0,discourage_X4,x,a,False,1054,2,11131,testPhase
36,0,discourage_X8,x,a,False,886,2,11131,testPhase
37,0,discourage_Y1,y,b,False,944,2,11131,testPhase
38,0,discourage_Y8,y,b,False,917,2,11131,testPhase
39,0,discourage_B3,b,b,True,1658,2,11131,testPhase
40,0,discourage_Y7,y,b,False,1301,2,11131,testPhase
41,0,discourage_W2,w,a,False,958,2,11131,testPhase
42,0,discourage_W1,w,a,False,734,2,11131,testPhase
43,0,discourage_Z2,z,a,False,1502,2,11131,testPhase
0,0,discourage_A2,a,a,True,3362,2,11268,trainPhase
1,0,discourage_B1,b,a,False,1896,2,11268,trainPhase
2,0,discourage_A0,a,a,True,1919,2,11268,trainPhase
3,0,discourage_A3,a,a,True,2541,2,11268,trainPhase
4,0,discourage_A1,a,b,False,1487,2,11268,trainPhase
5,0,discourage_B0,b,b,True,1717,2,11268,trainPhase
6,0,discourage_B3,b,a,False,797,2,11268,trainPhase
7,0,discourage_B2,b,a,False,2420,2,11268,trainPhase
0,1,discourage_A2,a,a,True,3892,2,11268,trainPhase
1,1,discourage_B3,b,b,True,1400,2,11268,trainPhase
2,1,discourage_B0,b,b,True,1342,2,11268,trainPhase
3,1,discourage_A0,a,b,False,1213,2,11268,trainPhase
4,1,discourage_B2,b,b,True,1580,2,11268,trainPhase
5,1,discourage_A3,a,a,True,845,2,11268,trainPhase
6,1,discourage_B1,b,b,True,1070,2,11268,trainPhase
7,1,discourage_A1,a,a,True,1158,2,11268,trainPhase
0,2,discourage_B1,b,b,True,886,2,11268,trainPhase
1,2,discourage_B3,b,b,True,3910,2,11268,trainPhase
2,2,discourage_A2,a,a,True,958,2,11268,trainPhase
3,2,discourage_B0,b,b,True,1278,2,11268,trainPhase
4,2,discourage_B2,b,b,True,1268,2,11268,trainPhase
5,2,discourage_A1,a,a,True,1038,2,11268,trainPhase
6,2,discourage_A3,a,a,True,1230,2,11268,trainPhase
7,2,discourage_A0,a,a,True,3334,2,11268,trainPhase
0,3,discourage_A2,a,a,True,1333,2,11268,trainPhase
1,3,discourage_B2,b,b,True,1621,2,11268,trainPhase
2,3,discourage_A3,a,a,True,1030,2,11268,trainPhase
0,0,discourage_X5,x,a,False,3254,2,11268,subTestPhase
1,0,discourage_B0,b,b,True,2274,2,11268,subTestPhase
2,0,discourage_X3,x,a,False,4085,2,11268,subTestPhase
3,0,discourage_B3,b,b,True,1904,2,11268,subTestPhase
4,0,discourage_A0,a,a,True,1399,2,11268,subTestPhase
5,0,discourage_X0,x,a,False,5206,2,11268,subTestPhase
6,0,discourage_B1,b,b,True,2417,2,11268,subTestPhase
7,0,discourage_A3,a,a,True,1054,2,11268,subTestPhase
8,0,discourage_X7,x,b,False,3174,2,11268,subTestPhase
9,0,discourage_X2,x,b,False,1287,2,11268,subTestPhase
10,0,discourage_X4,x,b,False,1085,2,11268,subTestPhase
11,0,discourage_B2,b,b,True,1606,2,11268,subTestPhase
12,0,discourage_X8,x,b,False,2710,2,11268,subTestPhase
13,0,discourage_X6,x,b,False,965,2,11268,subTestPhase
14,0,discourage_A2,a,a,True,1669,2,11268,subTestPhase
15,0,discourage_A1,a,a,True,2238,2,11268,subTestPhase
16,0,discourage_X1,x,b,False,1658,2,11268,subTestPhase
0,0,discourage_W0,w,b,False,1660,2,11268,testPhase
1,0,discourage_Y0,y,b,False,3310,2,11268,testPhase
2,0,discourage_A0,a,a,True,1796,2,11268,testPhase
3,0,discourage_B0,b,b,True,1630,2,11268,testPhase
4,0,discourage_Y7,y,b,False,1382,2,11268,testPhase
5,0,discourage_X2,x,a,False,4325,2,11268,testPhase
6,0,discourage_X8,x,a,False,3175,2,11268,testPhase
7,0,discourage_Z3,z,a,False,2598,2,11268,testPhase
8,0,discourage_Y1,y,b,False,1139,2,11268,testPhase
9,0,discourage_Y4,y,b,False,1542,2,11268,testPhase
10,0,discourage_X1,x,b,False,8357,2,11268,testPhase
11,0,discourage_W3,w,a,False,3787,2,11268,testPhase
12,0,discourage_Z4,z,a,False,1244,2,11268,testPhase
13,0,discourage_A2,a,a,True,1730,2,11268,testPhase
14,0,discourage_B3,b,b,True,1323,2,11268,testPhase
15,0,discourage_W8,w,a,False,1446,2,11268,testPhase
16,0,discourage_X7,x,a,False,3757,2,11268,testPhase
17,0,discourage_W6,w,a,False,2170,2,11268,testPhase
18,0,discourage_Y2,y,b,False,2039,2,11268,testPhase
19,0,discourage_Y8,y,b,False,1507,2,11268,testPhase
20,0,discourage_Y6,y,b,False,998,2,11268,testPhase
21,0,discourage_Y5,y,b,False,646,2,11268,testPhase
22,0,discourage_Z7,z,a,False,934,2,11268,testPhase
23,0,discourage_W4,w,a,False,1685,2,11268,testPhase
24,0,discourage_Z8,z,a,False,1428,2,11268,testPhase
25,0,discourage_A1,a,a,True,2945,2,11268,testPhase
26,0,discourage_X3,x,b,False,1467,2,11268,testPhase
27,0,discourage_A3,a,b,False,2272,2,11268,testPhase
28,0,discourage_X6,x,b,False,1814,2,11268,testPhase
29,0,discourage_W1,w,a,False,1855,2,11268,testPhase
30,0,discourage_W7,w,a,False,1007,2,11268,testPhase
31,0,discourage_W2,w,a,False,1513,2,11268,testPhase
32,0,discourage_Z6,z,a,False,1371,2,11268,testPhase
33,0,discourage_B1,b,b,True,1854,2,11268,testPhase
34,0,discourage_Y3,y,b,False,1289,2,11268,testPhase
35,0,discourage_Z2,z,b,False,2769,2,11268,testPhase
36,0,discourage_Z1,z,a,False,5949,2,11268,testPhase
37,0,discourage_W5,w,a,False,1714,2,11268,testPhase
38,0,discourage_X0,x,b,False,3232,2,11268,testPhase
39,0,discourage_X4,x,b,False,838,2,11268,testPhase
40,0,discourage_B2,b,b,True,4071,2,11268,testPhase
41,0,discourage_Z5,z,a,False,6021,2,11268,testPhase
42,0,discourage_Z0,z,a,False,1276,2,11268,testPhase
43,0,discourage_X5,x,b,False,3242,2,11268,testPhase
0,0,discourage_B1,b,b,True,6082,2,11270,trainPhase
1,0,discourage_A2,a,a,True,5357,2,11270,trainPhase
2,0,discourage_A0,a,b,False,2566,2,11270,trainPhase
3,0,discourage_A3,a,a,True,3361,2,11270,trainPhase
4,0,discourage_B2,b,b,True,2085,2,11270,trainPhase
5,0,discourage_B0,b,b,True,5374,2,11270,trainPhase
6,0,discourage_A1,a,a,True,1566,2,11270,trainPhase
7,0,discourage_B3,b,b,True,1550,2,11270,trainPhase
0,1,discourage_A1,a,a,True,3997,2,11270,trainPhase
1,1,discourage_B3,b,b,True,1929,2,11270,trainPhase
2,1,discourage_B2,b,a,False,2052,2,11270,trainPhase
3,1,discourage_B1,b,b,True,2565,2,11270,trainPhase
4,1,discourage_A2,a,a,True,1915,2,11270,trainPhase
5,1,discourage_A0,a,a,True,1572,2,11270,trainPhase
6,1,discourage_B0,b,b,True,2080,2,11270,trainPhase
7,1,discourage_A3,a,a,True,1276,2,11270,trainPhase
0,2,discourage_A2,a,a,True,1206,2,11270,trainPhase
1,2,discourage_B3,b,b,True,2190,2,11270,trainPhase
2,2,discourage_B2,b,a,False,1964,2,11270,trainPhase
3,2,discourage_A3,a,a,True,1531,2,11270,trainPhase
4,2,discourage_A0,a,a,True,1109,2,11270,trainPhase
5,2,discourage_A1,a,b,False,2933,2,11270,trainPhase
6,2,discourage_B0,b,b,True,2022,2,11270,trainPhase
7,2,discourage_B1,b,b,True,2481,2,11270,trainPhase
0,3,discourage_B0,b,b,True,4494,2,11270,trainPhase
1,3,discourage_A0,a,a,True,2996,2,11270,trainPhase
2,3,discourage_B3,b,b,True,7072,2,11270,trainPhase
3,3,discourage_A3,a,a,True,1231,2,11270,trainPhase
4,3,discourage_B2,b,b,True,11334,2,11270,trainPhase
5,3,discourage_A1,a,a,True,1117,2,11270,trainPhase
6,3,discourage_B1,b,b,True,8549,2,11270,trainPhase
7,3,discourage_A2,a,a,True,1450,2,11270,trainPhase
0,4,discourage_A3,a,a,True,1326,2,11270,trainPhase
1,4,discourage_B3,b,b,True,2382,2,11270,trainPhase
2,4,discourage_B0,b,b,True,2680,2,11270,trainPhase
3,4,discourage_A0,a,a,True,883,2,11270,trainPhase
4,4,discourage_B1,b,b,True,1678,2,11270,trainPhase
0,0,discourage_X0,x,a,False,5053,2,11270,subTestPhase
1,0,discourage_X1,x,a,False,7303,2,11270,subTestPhase
2,0,discourage_X8,x,a,False,1039,2,11270,subTestPhase
3,0,discourage_X3,x,a,False,1513,2,11270,subTestPhase
4,0,discourage_B3,b,b,True,1581,2,11270,subTestPhase
5,0,discourage_B0,b,b,True,1509,2,11270,subTestPhase
6,0,discourage_A0,a,a,True,973,2,11270,subTestPhase
7,0,discourage_X4,x,b,False,1109,2,11270,subTestPhase
8,0,discourage_X7,x,b,False,2318,2,11270,subTestPhase
9,0,discourage_X2,x,a,False,1054,2,11270,subTestPhase
10,0,discourage_A3,a,a,True,1678,2,11270,subTestPhase
11,0,discourage_A2,a,b,False,2525,2,11270,subTestPhase
12,0,discourage_B2,b,b,True,2614,2,11270,subTestPhase
13,0,discourage_A1,a,a,True,919,2,11270,subTestPhase
14,0,discourage_X6,x,a,False,1430,2,11270,subTestPhase
15,0,discourage_B1,b,b,True,9002,2,11270,subTestPhase
16,0,discourage_X5,x,a,False,997,2,11270,subTestPhase
0,0,discourage_A1,a,a,True,1278,2,11270,testPhase
1,0,discourage_Y8,y,b,False,1037,2,11270,testPhase
2,0,discourage_W4,w,a,False,917,2,11270,testPhase
3,0,discourage_X4,x,b,False,1401,2,11270,testPhase
4,0,discourage_Z6,z,a,False,1109,2,11270,testPhase
5,0,discourage_W7,w,a,False,1986,2,11270,testPhase
6,0,discourage_Z1,z,b,False,3026,2,11270,testPhase
7,0,discourage_Y2,y,b,False,1269,2,11270,testPhase
8,0,discourage_Y0,y,a,False,3973,2,11270,testPhase
9,0,discourage_X3,x,a,False,1519,2,11270,testPhase
10,0,discourage_Y1,y,b,False,845,2,11270,testPhase
11,0,discourage_A2,a,a,True,762,2,11270,testPhase
12,0,discourage_Z3,z,b,False,2446,2,11270,testPhase
13,0,discourage_W8,w,a,False,1117,2,11270,testPhase
14,0,discourage_Y7,y,b,False,1583,2,11270,testPhase
15,0,discourage_X8,x,a,False,3731,2,11270,testPhase
16,0,discourage_Y5,y,b,False,962,2,11270,testPhase
17,0,discourage_A0,a,a,True,727,2,11270,testPhase
18,0,discourage_B0,b,b,True,1118,2,11270,testPhase
19,0,discourage_B3,b,b,True,1525,2,11270,testPhase
20,0,discourage_B1,b,b,True,1269,2,11270,testPhase
21,0,discourage_Y6,y,b,False,1141,2,11270,testPhase
22,0,discourage_X6,x,a,False,1038,2,11270,testPhase
23,0,discourage_A3,a,a,True,879,2,11270,testPhase
24,0,discourage_Z4,z,a,False,613,2,11270,testPhase
25,0,discourage_Z8,z,a,False,878,2,11270,testPhase
26,0,discourage_X1,x,a,False,754,2,11270,testPhase
27,0,discourage_Y3,y,b,False,1271,2,11270,testPhase
28,0,discourage_X0,x,a,False,797,2,11270,testPhase
29,0,discourage_W5,w,a,False,1238,2,11270,testPhase
30,0,discourage_W1,w,b,False,1494,2,11270,testPhase
31,0,discourage_W2,w,b,False,910,2,11270,testPhase
32,0,discourage_Z0,z,a,False,1149,2,11270,testPhase
33,0,discourage_Z2,z,b,False,1691,2,11270,testPhase
34,0,discourage_X7,x,a,False,924,2,11270,testPhase
35,0,discourage_Z5,z,b,False,809,2,11270,testPhase
36,0,discourage_X5,x,a,False,816,2,11270,testPhase
37,0,discourage_Z7,z,a,False,1070,2,11270,testPhase
38,0,discourage_Y4,y,b,False,1074,2,11270,testPhase
39,0,discourage_X2,x,a,False,781,2,11270,testPhase
40,0,discourage_W3,w,b,False,1079,2,11270,testPhase
41,0,discourage_W0,w,b,False,1061,2,11270,testPhase
42,0,discourage_W6,w,a,False,3145,2,11270,testPhase
43,0,discourage_B2,b,b,True,2154,2,11270,testPhase
0,0,discourage_B2,b,b,True,2108,2,11272,trainPhase
1,0,discourage_A1,a,b,False,1540,2,11272,trainPhase
2,0,discourage_A3,a,b,False,1239,2,11272,trainPhase
3,0,discourage_A2,a,b,False,1242,2,11272,trainPhase
4,0,discourage_B1,b,a,False,975,2,11272,trainPhase
5,0,discourage_B3,b,a,False,4253,2,11272,trainPhase
6,0,discourage_B0,b,b,True,2732,2,11272,trainPhase
7,0,discourage_A0,a,b,False,1131,2,11272,trainPhase
0,1,discourage_A2,a,a,True,1245,2,11272,trainPhase
1,1,discourage_B3,b,b,True,1444,2,11272,trainPhase
2,1,discourage_A1,a,a,True,1919,2,11272,trainPhase
3,1,discourage_A0,a,a,True,1019,2,11272,trainPhase
4,1,discourage_B2,b,b,True,1149,2,11272,trainPhase
5,1,discourage_B1,b,b,True,730,2,11272,trainPhase
6,1,discourage_B0,b,b,True,818,2,11272,trainPhase
7,1,discourage_A3,a,a,True,1147,2,11272,trainPhase
0,2,discourage_A0,a,a,True,1233,2,11272,trainPhase
1,2,discourage_B3,b,b,True,1217,2,11272,trainPhase
2,2,discourage_A3,a,a,True,1182,2,11272,trainPhase
3,2,discourage_B0,b,b,True,1361,2,11272,trainPhase
4,2,discourage_B1,b,b,True,737,2,11272,trainPhase
5,2,discourage_A1,a,a,True,1357,2,11272,trainPhase
6,2,discourage_B2,b,b,True,1040,2,11272,trainPhase
0,0,discourage_X8,x,b,False,2411,2,11272,subTestPhase
1,0,discourage_A1,a,a,True,1376,2,11272,subTestPhase
2,0,discourage_X5,x,a,False,1106,2,11272,subTestPhase
3,0,discourage_X1,x,b,False,1278,2,11272,subTestPhase
4,0,discourage_A0,a,a,True,1109,2,11272,subTestPhase
5,0,discourage_X2,x,b,False,713,2,11272,subTestPhase
6,0,discourage_B2,b,b,True,1462,2,11272,subTestPhase
7,0,discourage_B1,b,b,True,664,2,11272,subTestPhase
8,0,discourage_A3,a,a,True,1071,2,11272,subTestPhase
9,0,discourage_X6,x,b,False,2120,2,11272,subTestPhase
10,0,discourage_X3,x,b,False,1040,2,11272,subTestPhase
11,0,discourage_X0,x,b,False,783,2,11272,subTestPhase
12,0,discourage_X4,x,b,False,1448,2,11272,subTestPhase
13,0,discourage_X7,x,b,False,3838,2,11272,subTestPhase
14,0,discourage_B3,b,b,True,1248,2,11272,subTestPhase
15,0,discourage_A2,a,a,True,1216,2,11272,subTestPhase
16,0,discourage_B0,b,b,True,2741,2,11272,subTestPhase
0,0,discourage_Z2,z,a,False,1619,2,11272,testPhase
1,0,discourage_X1,x,a,False,2918,2,11272,testPhase
2,0,discourage_W5,w,a,False,1120,2,11272,testPhase
3,0,discourage_W4,w,a,False,673,2,11272,testPhase
4,0,discourage_B2,b,b,True,1562,2,11272,testPhase
5,0,discourage_W8,w,a,False,965,2,11272,testPhase
6,0,discourage_Z3,z,a,False,1272,2,11272,testPhase
7,0,discourage_X0,x,a,False,1437,2,11272,testPhase
8,0,discourage_Y1,y,a,False,4547,2,11272,testPhase
9,0,discourage_Z4,z,b,False,1365,2,11272,testPhase
10,0,discourage_W3,w,b,False,6037,2,11272,testPhase
11,0,discourage_B3,b,b,True,2474,2,11272,testPhase
12,0,discourage_W6,w,b,False,1308,2,11272,testPhase
13,0,discourage_Z1,z,a,False,1201,2,11272,testPhase
14,0,discourage_A1,a,a,True,4502,2,11272,testPhase
15,0,discourage_X4,x,b,False,2351,2,11272,testPhase
16,0,discourage_X3,x,b,False,1331,2,11272,testPhase
17,0,discourage_Y0,y,b,False,5413,2,11272,testPhase
18,0,discourage_Z8,z,b,False,1681,2,11272,testPhase
19,0,discourage_Z6,z,a,False,1334,2,11272,testPhase
20,0,discourage_X2,x,b,False,1785,2,11272,testPhase
21,0,discourage_Y6,y,a,False,3916,2,11272,testPhase
22,0,discourage_B0,b,b,True,2757,2,11272,testPhase
23,0,discourage_B1,b,b,True,5395,2,11272,testPhase
24,0,discourage_Z7,z,a,False,1286,2,11272,testPhase
25,0,discourage_W7,w,a,False,1541,2,11272,testPhase
26,0,discourage_Z0,z,a,False,1329,2,11272,testPhase
27,0,discourage_Y3,y,b,False,992,2,11272,testPhase
28,0,discourage_W2,w,a,False,992,2,11272,testPhase
29,0,discourage_W0,w,b,False,1493,2,11272,testPhase
30,0,discourage_X5,x,b,False,1406,2,11272,testPhase
31,0,discourage_X7,x,b,False,790,2,11272,testPhase
32,0,discourage_W1,w,a,False,948,2,11272,testPhase
33,0,discourage_Y4,y,b,False,1646,2,11272,testPhase
34,0,discourage_Y8,y,b,False,1103,2,11272,testPhase
35,0,discourage_Y2,y,b,False,1209,2,11272,testPhase
36,0,discourage_A2,a,a,True,899,2,11272,testPhase
37,0,discourage_A3,a,b,False,5079,2,11272,testPhase
38,0,discourage_X6,x,a,False,1853,2,11272,testPhase
39,0,discourage_Y7,y,b,False,1404,2,11272,testPhase
40,0,discourage_A0,a,b,False,3315,2,11272,testPhase
41,0,discourage_Y5,y,a,False,1879,2,11272,testPhase
42,0,discourage_X8,x,b,False,2126,2,11272,testPhase
43,0,discourage_Z5,z,a,False,3158,2,11272,testPhase
0,0,discourage_B1,b,b,True,2746,2,11274,trainPhase
1,0,discourage_A1,a,b,False,2660,2,11274,trainPhase
2,0,discourage_B3,b,b,True,1818,2,11274,trainPhase
3,0,discourage_B0,b,a,False,2514,2,11274,trainPhase
4,0,discourage_A2,a,b,False,2277,2,11274,trainPhase
5,0,discourage_A0,a,a,True,1145,2,11274,trainPhase
6,0,discourage_B2,b,b,True,1493,2,11274,trainPhase
7,0,discourage_A3,a,a,True,3274,2,11274,trainPhase
0,1,discourage_B0,b,b,True,1854,2,11274,trainPhase
1,1,discourage_B3,b,b,True,1970,2,11274,trainPhase
2,1,discourage_B1,b,b,True,1884,2,11274,trainPhase
3,1,discourage_A2,a,a,True,3205,2,11274,trainPhase
4,1,discourage_B2,b,b,True,5118,2,11274,trainPhase
5,1,discourage_A0,a,a,True,825,2,11274,trainPhase
6,1,discourage_A1,a,a,True,981,2,11274,trainPhase
7,1,discourage_A3,a,a,True,2397,2,11274,trainPhase
0,2,discourage_A2,a,b,False,1006,2,11274,trainPhase
1,2,discourage_B0,b,b,True,1482,2,11274,trainPhase
2,2,discourage_B3,b,b,True,941,2,11274,trainPhase
3,2,discourage_A0,a,a,True,725,2,11274,trainPhase
4,2,discourage_A3,a,a,True,1437,2,11274,trainPhase
5,2,discourage_B1,b,b,True,815,2,11274,trainPhase
6,2,discourage_B2,b,b,True,1357,2,11274,trainPhase
7,2,discourage_A1,a,a,True,653,2,11274,trainPhase
0,3,discourage_B0,b,b,True,4740,2,11274,trainPhase
1,3,discourage_B3,b,b,True,1214,2,11274,trainPhase
2,3,discourage_A1,a,a,True,758,2,11274,trainPhase
3,3,discourage_A2,a,a,True,854,2,11274,trainPhase
4,3,discourage_B2,b,b,True,2022,2,11274,trainPhase
5,3,discourage_B1,b,b,True,782,2,11274,trainPhase
6,3,discourage_A3,a,a,True,620,2,11274,trainPhase
7,3,discourage_A0,a,a,True,1094,2,11274,trainPhase
0,0,discourage_B0,b,b,True,3009,2,11274,subTestPhase
1,0,discourage_A0,a,a,True,981,2,11274,subTestPhase
2,0,discourage_X0,x,a,False,3646,2,11274,subTestPhase
3,0,discourage_X5,x,a,False,1047,2,11274,subTestPhase
4,0,discourage_X3,x,b,False,2506,2,11274,subTestPhase
5,0,discourage_B1,b,b,True,1653,2,11274,subTestPhase
6,0,discourage_B3,b,b,True,909,2,11274,subTestPhase
7,0,discourage_B2,b,b,True,1701,2,11274,subTestPhase
8,0,discourage_X8,x,a,False,782,2,11274,subTestPhase
9,0,discourage_X4,x,a,False,1526,2,11274,subTestPhase
10,0,discourage_X1,x,a,False,959,2,11274,subTestPhase
11,0,discourage_X7,x,a,False,1101,2,11274,subTestPhase
12,0,discourage_A1,a,a,True,1781,2,11274,subTestPhase
13,0,discourage_A3,a,b,False,1011,2,11274,subTestPhase
14,0,discourage_A2,a,b,False,605,2,11274,subTestPhase
15,0,discourage_X6,x,a,False,2165,2,11274,subTestPhase
16,0,discourage_X2,x,a,False,838,2,11274,subTestPhase
0,0,discourage_A1,a,a,True,1173,2,11274,testPhase
1,0,discourage_W4,w,a,False,982,2,11274,testPhase
2,0,discourage_Y3,y,b,False,1381,2,11274,testPhase
3,0,discourage_X4,x,a,False,789,2,11274,testPhase
4,0,discourage_W8,w,a,False,1005,2,11274,testPhase
5,0,discourage_X8,x,a,False,782,2,11274,testPhase
6,0,discourage_Y1,y,b,False,1894,2,11274,testPhase
7,0,discourage_Y5,y,b,False,926,2,11274,testPhase
8,0,discourage_X3,x,a,False,1374,2,11274,testPhase
9,0,discourage_B2,b,b,True,1438,2,11274,testPhase
10,0,discourage_W5,w,a,False,780,2,11274,testPhase
11,0,discourage_Z4,z,b,False,1558,2,11274,testPhase
12,0,discourage_X6,x,a,False,446,2,11274,testPhase
13,0,discourage_W3,w,b,False,773,2,11274,testPhase
14,0,discourage_Z3,z,b,False,1589,2,11274,testPhase
15,0,discourage_Z6,z,b,False,614,2,11274,testPhase
16,0,discourage_Y4,y,b,False,726,2,11274,testPhase
17,0,discourage_X7,x,a,False,1134,2,11274,testPhase
18,0,discourage_W7,w,a,False,1351,2,11274,testPhase
19,0,discourage_X5,x,a,False,740,2,11274,testPhase
20,0,discourage_B0,b,b,True,1101,2,11274,testPhase
21,0,discourage_A3,a,a,True,7341,2,11274,testPhase
22,0,discourage_W2,w,a,False,909,2,11274,testPhase
23,0,discourage_W1,w,a,False,1102,2,11274,testPhase
24,0,discourage_X1,x,a,False,653,2,11274,testPhase
25,0,discourage_X0,x,a,False,750,2,11274,testPhase
26,0,discourage_Z2,z,a,False,550,2,11274,testPhase
27,0,discourage_Y7,y,b,False,598,2,11274,testPhase
28,0,discourage_Y2,y,b,False,2422,2,11274,testPhase
29,0,discourage_W0,w,b,False,652,2,11274,testPhase
30,0,discourage_Z0,z,b,False,2814,2,11274,testPhase
31,0,discourage_Z5,z,a,False,781,2,11274,testPhase
32,0,discourage_Y8,y,b,False,1289,2,11274,testPhase
33,0,discourage_Z7,z,a,False,1382,2,11274,testPhase
34,0,discourage_Y0,y,b,False,1118,2,11274,testPhase
35,0,discourage_Z1,z,b,False,1823,2,11274,testPhase
36,0,discourage_Y6,y,b,False,846,2,11274,testPhase
37,0,discourage_A2,a,a,True,926,2,11274,testPhase
38,0,discourage_X2,x,a,False,902,2,11274,testPhase
39,0,discourage_A0,a,a,True,806,2,11274,testPhase
40,0,discourage_W6,w,a,False,766,2,11274,testPhase
41,0,discourage_B1,b,b,True,566,2,11274,testPhase
42,0,discourage_B3,b,b,True,718,2,11274,testPhase
43,0,discourage_Z8,z,a,False,926,2,11274,testPhase
0,0,discourage_A2,a,b,False,3952,2,11276,trainPhase
1,0,discourage_A0,a,a,True,2931,2,11276,trainPhase
2,0,discourage_B1,b,a,False,2369,2,11276,trainPhase
3,0,discourage_A3,a,b,False,4182,2,11276,trainPhase
4,0,discourage_B2,b,a,False,2539,2,11276,trainPhase
5,0,discourage_B3,b,b,True,1879,2,11276,trainPhase
6,0,discourage_B0,b,b,True,4419,2,11276,trainPhase
7,0,discourage_A1,a,a,True,2311,2,11276,trainPhase
0,1,discourage_B2,b,b,True,4224,2,11276,trainPhase
1,1,discourage_B0,b,b,True,3201,2,11276,trainPhase
2,1,discourage_A2,a,a,True,3704,2,11276,trainPhase
3,1,discourage_B3,b,b,True,2171,2,11276,trainPhase
4,1,discourage_A3,a,a,True,2081,2,11276,trainPhase
5,1,discourage_A0,a,b,False,2263,2,11276,trainPhase
6,1,discourage_B1,b,b,True,1349,2,11276,trainPhase
7,1,discourage_A1,a,a,True,1965,2,11276,trainPhase
0,2,discourage_A2,a,a,True,1856,2,11276,trainPhase
1,2,discourage_A3,a,a,True,2048,2,11276,trainPhase
2,2,discourage_A0,a,a,True,2328,2,11276,trainPhase
3,2,discourage_B1,b,b,True,1453,2,11276,trainPhase
4,2,discourage_A1,a,a,True,3446,2,11276,trainPhase
5,2,discourage_B0,b,b,True,2469,2,11276,trainPhase
6,2,discourage_B2,b,b,True,1053,2,11276,trainPhase
7,2,discourage_B3,b,b,True,1611,2,11276,trainPhase
0,3,discourage_B0,b,b,True,1722,2,11276,trainPhase
1,3,discourage_B2,b,b,True,1694,2,11276,trainPhase
2,3,discourage_A2,a,a,True,1157,2,11276,trainPhase
3,3,discourage_A0,a,a,True,2817,2,11276,trainPhase
4,3,discourage_B1,b,b,True,1457,2,11276,trainPhase
0,0,discourage_A0,a,a,True,2706,2,11276,subTestPhase
1,0,discourage_X3,x,a,False,1933,2,11276,subTestPhase
2,0,discourage_B3,b,b,True,4062,2,11276,subTestPhase
3,0,discourage_X0,x,a,False,1983,2,11276,subTestPhase
4,0,discourage_X8,x,a,False,1279,2,11276,subTestPhase
5,0,discourage_B1,b,b,True,1485,2,11276,subTestPhase
6,0,discourage_B2,b,b,True,1823,2,11276,subTestPhase
7,0,discourage_A1,a,a,True,1454,2,11276,subTestPhase
8,0,discourage_X2,x,a,False,1020,2,11276,subTestPhase
9,0,discourage_X6,x,a,False,1992,2,11276,subTestPhase
10,0,discourage_X7,x,a,False,1653,2,11276,subTestPhase
11,0,discourage_B0,b,b,True,1634,2,11276,subTestPhase
12,0,discourage_A2,a,a,True,2598,2,11276,subTestPhase
13,0,discourage_A3,a,a,True,1019,2,11276,subTestPhase
14,0,discourage_X5,x,a,False,1416,2,11276,subTestPhase
15,0,discourage_X1,x,a,False,1864,2,11276,subTestPhase
16,0,discourage_X4,x,a,False,1544,2,11276,subTestPhase
0,0,discourage_X5,x,b,False,3297,2,11276,testPhase
1,0,discourage_W7,w,b,False,1107,2,11276,testPhase
2,0,discourage_Y7,y,b,False,1223,2,11276,testPhase
3,0,discourage_Y1,y,b,False,962,2,11276,testPhase
4,0,discourage_W6,w,a,False,1607,2,11276,testPhase
5,0,discourage_Y8,y,b,False,1437,2,11276,testPhase
6,0,discourage_X7,x,a,False,1211,2,11276,testPhase
7,0,discourage_Z8,z,a,False,1920,2,11276,testPhase
8,0,discourage_X4,x,a,False,1145,2,11276,testPhase
9,0,discourage_W5,w,a,False,4004,2,11276,testPhase
10,0,discourage_W3,w,b,False,1587,2,11276,testPhase
11,0,discourage_Y3,y,b,False,1003,2,11276,testPhase
12,0,discourage_W8,w,a,False,2254,2,11276,testPhase
13,0,discourage_Y5,y,b,False,984,2,11276,testPhase
14,0,discourage_Z3,z,a,False,1646,2,11276,testPhase
15,0,discourage_B1,b,b,True,2693,2,11276,testPhase
16,0,discourage_X2,x,a,False,1158,2,11276,testPhase
17,0,discourage_Z7,z,a,False,1237,2,11276,testPhase
18,0,discourage_X1,x,a,False,1515,2,11276,testPhase
19,0,discourage_A2,a,a,True,1963,2,11276,testPhase
20,0,discourage_Z5,z,a,False,963,2,11276,testPhase
21,0,discourage_Y4,y,b,False,999,2,11276,testPhase
22,0,discourage_Z1,z,a,False,3077,2,11276,testPhase
23,0,discourage_W4,w,b,False,1065,2,11276,testPhase
24,0,discourage_A0,a,a,True,1361,2,11276,testPhase
25,0,discourage_W1,w,a,False,1142,2,11276,testPhase
26,0,discourage_Z0,z,a,False,1480,2,11276,testPhase
27,0,discourage_X3,x,a,False,3157,2,11276,testPhase
28,0,discourage_X0,x,a,False,1327,2,11276,testPhase
29,0,discourage_B2,b,b,True,4928,2,11276,testPhase
30,0,discourage_W0,w,a,False,1857,2,11276,testPhase
31,0,discourage_X8,x,a,False,1062,2,11276,testPhase
32,0,discourage_B0,b,b,True,4010,2,11276,testPhase
33,0,discourage_Y2,y,b,False,864,2,11276,testPhase
34,0,discourage_Y0,y,b,False,891,2,11276,testPhase
35,0,discourage_A1,a,a,True,1532,2,11276,testPhase
36,0,discourage_Y6,y,b,False,968,2,11276,testPhase
37,0,discourage_Z2,z,a,False,1126,2,11276,testPhase
38,0,discourage_X6,x,a,False,965,2,11276,testPhase
39,0,discourage_B3,b,b,True,1957,2,11276,testPhase
40,0,discourage_Z6,z,a,False,979,2,11276,testPhase
41,0,discourage_Z4,z,a,False,1156,2,11276,testPhase
42,0,discourage_A3,a,a,True,1064,2,11276,testPhase
43,0,discourage_W2,w,a,False,1759,2,11276,testPhase
0,0,discourage_A1,a,a,True,2787,2,11278,trainPhase
1,0,discourage_B0,b,b,True,1494,2,11278,trainPhase
2,0,discourage_A3,a,b,False,1308,2,11278,trainPhase
3,0,discourage_B1,b,b,True,2114,2,11278,trainPhase
4,0,discourage_A0,a,b,False,1364,2,11278,trainPhase
5,0,discourage_A2,a,a,True,1153,2,11278,trainPhase
6,0,discourage_B2,b,b,True,1678,2,11278,trainPhase
7,0,discourage_B3,b,a,False,3638,2,11278,trainPhase
0,1,discourage_B0,b,b,True,3563,2,11278,trainPhase
1,1,discourage_A1,a,b,False,2579,2,11278,trainPhase
2,1,discourage_A3,a,a,True,3399,2,11278,trainPhase
3,1,discourage_B3,b,b,True,2681,2,11278,trainPhase
4,1,discourage_A0,a,a,True,1462,2,11278,trainPhase
5,1,discourage_A2,a,a,True,1590,2,11278,trainPhase
6,1,discourage_B2,b,b,True,1569,2,11278,trainPhase
7,1,discourage_B1,b,b,True,1163,2,11278,trainPhase
0,2,discourage_B0,b,b,True,1924,2,11278,trainPhase
1,2,discourage_A0,a,a,True,1425,2,11278,trainPhase
2,2,discourage_B2,b,b,True,2284,2,11278,trainPhase
3,2,discourage_A3,a,a,True,5940,2,11278,trainPhase
4,2,discourage_B1,b,b,True,2774,2,11278,trainPhase
5,2,discourage_A2,a,a,True,2189,2,11278,trainPhase
6,2,discourage_A1,a,a,True,2248,2,11278,trainPhase
7,2,discourage_B3,b,b,True,2307,2,11278,trainPhase
0,3,discourage_A2,a,a,True,1629,2,11278,trainPhase
0,0,discourage_B3,b,b,True,3822,2,11278,subTestPhase
1,0,discourage_A3,a,a,True,2461,2,11278,subTestPhase
2,0,discourage_X4,x,b,False,2198,2,11278,subTestPhase
3,0,discourage_X3,x,b,False,2168,2,11278,subTestPhase
4,0,discourage_X0,x,a,False,2949,2,11278,subTestPhase
5,0,discourage_X5,x,b,False,2622,2,11278,subTestPhase
6,0,discourage_B1,b,b,True,1638,2,11278,subTestPhase
7,0,discourage_A2,a,a,True,2513,2,11278,subTestPhase
8,0,discourage_X1,x,b,False,3391,2,11278,subTestPhase
9,0,discourage_X7,x,b,False,2366,2,11278,subTestPhase
10,0,discourage_A0,a,a,True,1430,2,11278,subTestPhase
11,0,discourage_X6,x,a,False,2774,2,11278,subTestPhase
12,0,discourage_B0,b,b,True,1702,2,11278,subTestPhase
13,0,discourage_B2,b,a,False,2831,2,11278,subTestPhase
14,0,discourage_A1,a,a,True,3150,2,11278,subTestPhase
15,0,discourage_X8,x,b,False,3565,2,11278,subTestPhase
16,0,discourage_X2,x,a,False,2611,2,11278,subTestPhase
0,0,discourage_W7,w,a,False,1758,2,11278,testPhase
1,0,discourage_A1,a,b,False,2100,2,11278,testPhase
2,0,discourage_X8,x,a,False,1063,2,11278,testPhase
3,0,discourage_Z2,z,b,False,1871,2,11278,testPhase
4,0,discourage_Y3,y,a,False,3495,2,11278,testPhase
5,0,discourage_Y0,y,b,False,1470,2,11278,testPhase
6,0,discourage_X0,x,b,False,3885,2,11278,testPhase
7,0,discourage_W4,w,a,False,1342,2,11278,testPhase
8,0,discourage_Z6,z,b,False,1154,2,11278,testPhase
9,0,discourage_Y4,y,b,False,2110,2,11278,testPhase
10,0,discourage_Z4,z,a,False,991,2,11278,testPhase
11,0,discourage_X7,x,b,False,2309,2,11278,testPhase
12,0,discourage_Y1,y,a,False,1901,2,11278,testPhase
13,0,discourage_B0,b,b,True,1505,2,11278,testPhase
14,0,discourage_A0,a,b,False,2984,2,11278,testPhase
15,0,discourage_A2,a,a,True,1494,2,11278,testPhase
16,0,discourage_A3,a,a,True,1502,2,11278,testPhase
17,0,discourage_W0,w,b,False,1677,2,11278,testPhase
18,0,discourage_Y7,y,a,False,1111,2,11278,testPhase
19,0,discourage_Z1,z,a,False,1523,2,11278,testPhase
20,0,discourage_X5,x,b,False,2988,2,11278,testPhase
21,0,discourage_B2,b,b,True,2869,2,11278,testPhase
22,0,discourage_W1,w,b,False,2920,2,11278,testPhase
23,0,discourage_Z8,z,b,False,2222,2,11278,testPhase
24,0,discourage_B1,b,a,False,1357,2,11278,testPhase
25,0,discourage_X2,x,b,False,1902,2,11278,testPhase
26,0,discourage_Y5,y,a,False,1252,2,11278,testPhase
27,0,discourage_Y2,y,b,False,1771,2,11278,testPhase
28,0,discourage_X1,x,b,False,2099,2,11278,testPhase
29,0,discourage_Y6,y,a,False,1438,2,11278,testPhase
30,0,discourage_Z7,z,b,False,3225,2,11278,testPhase
31,0,discourage_X6,x,b,False,1418,2,11278,testPhase
32,0,discourage_Z3,z,a,False,1296,2,11278,testPhase
33,0,discourage_W6,w,b,False,1581,2,11278,testPhase
34,0,discourage_W8,w,a,False,1283,2,11278,testPhase
35,0,discourage_X3,x,b,False,1492,2,11278,testPhase
36,0,discourage_Z0,z,a,False,1842,2,11278,testPhase
37,0,discourage_Z5,z,b,False,1776,2,11278,testPhase
38,0,discourage_W2,w,a,False,1335,2,11278,testPhase
39,0,discourage_B3,b,a,False,3883,2,11278,testPhase
40,0,discourage_Y8,y,b,False,1231,2,11278,testPhase
41,0,discourage_W3,w,a,False,1096,2,11278,testPhase
42,0,discourage_W5,w,b,False,1739,2,11278,testPhase
43,0,discourage_X4,x,b,False,4934,2,11278,testPhase
0,0,discourage_A1,a,b,False,2423,2,11280,trainPhase
1,0,discourage_A0,a,a,True,2452,2,11280,trainPhase
2,0,discourage_A3,a,a,True,2110,2,11280,trainPhase
3,0,discourage_B0,b,a,False,1973,2,11280,trainPhase
4,0,discourage_B1,b,b,True,983,2,11280,trainPhase
5,0,discourage_B2,b,a,False,1726,2,11280,trainPhase
6,0,discourage_A2,a,a,True,5929,2,11280,trainPhase
7,0,discourage_B3,b,a,False,1702,2,11280,trainPhase
0,1,discourage_B1,b,a,False,2495,2,11280,trainPhase
1,1,discourage_B3,b,b,True,1208,2,11280,trainPhase
2,1,discourage_A3,a,a,True,2286,2,11280,trainPhase
3,1,discourage_A1,a,b,False,1350,2,11280,trainPhase
4,1,discourage_A0,a,a,True,1082,2,11280,trainPhase
5,1,discourage_A2,a,a,True,2468,2,11280,trainPhase
6,1,discourage_B0,b,b,True,2336,2,11280,trainPhase
7,1,discourage_B2,b,a,False,1164,2,11280,trainPhase
0,2,discourage_B0,b,b,True,469,2,11280,trainPhase
1,2,discourage_B2,b,b,True,1802,2,11280,trainPhase
2,2,discourage_B1,b,b,True,1301,2,11280,trainPhase
3,2,discourage_B3,b,a,False,1611,2,11280,trainPhase
4,2,discourage_A1,a,a,True,1173,2,11280,trainPhase
5,2,discourage_A3,a,a,True,1318,2,11280,trainPhase
6,2,discourage_A2,a,a,True,1061,2,11280,trainPhase
7,2,discourage_A0,a,a,True,1636,2,11280,trainPhase
0,3,discourage_B3,b,b,True,2213,2,11280,trainPhase
1,3,discourage_A1,a,a,True,1182,2,11280,trainPhase
2,3,discourage_A3,a,a,True,981,2,11280,trainPhase
3,3,discourage_A0,a,a,True,1341,2,11280,trainPhase
4,3,discourage_B0,b,b,True,1056,2,11280,trainPhase
5,3,discourage_B2,b,b,True,910,2,11280,trainPhase
6,3,discourage_A2,a,a,True,1183,2,11280,trainPhase
7,3,discourage_B1,b,b,True,941,2,11280,trainPhase
0,4,discourage_B1,b,b,True,965,2,11280,trainPhase
1,4,discourage_B0,b,b,True,893,2,11280,trainPhase
2,4,discourage_B3,b,b,True,1557,2,11280,trainPhase
0,0,discourage_X3,x,a,False,1254,2,11280,subTestPhase
1,0,discourage_X2,x,a,False,1709,2,11280,subTestPhase
2,0,discourage_A2,a,a,True,1030,2,11280,subTestPhase
3,0,discourage_X4,x,a,False,911,2,11280,subTestPhase
4,0,discourage_A1,a,a,True,1014,2,11280,subTestPhase
5,0,discourage_X8,x,a,False,839,2,11280,subTestPhase
6,0,discourage_A0,a,a,True,943,2,11280,subTestPhase
7,0,discourage_B3,b,b,True,905,2,11280,subTestPhase
8,0,discourage_X6,x,a,False,933,2,11280,subTestPhase
9,0,discourage_A3,a,a,True,2086,2,11280,subTestPhase
10,0,discourage_X0,x,b,False,2347,2,11280,subTestPhase
11,0,discourage_X7,x,a,False,794,2,11280,subTestPhase
12,0,discourage_X1,x,a,False,990,2,11280,subTestPhase
13,0,discourage_B2,b,b,True,1022,2,11280,subTestPhase
14,0,discourage_B1,b,b,True,888,2,11280,subTestPhase
15,0,discourage_B0,b,b,True,829,2,11280,subTestPhase
16,0,discourage_X5,x,a,False,756,2,11280,subTestPhase
0,0,discourage_B1,b,b,True,798,2,11280,testPhase
