trial,block,stimId,category,response,rt,condition,id,phase
0,0,discourage_W3,w,4.0,17338,2,11239,typicality
1,0,discourage_X5,x,0.9999999999999996,4938,2,11239,typicality
2,0,discourage_Y3,y,12.0,5005,2,11239,typicality
3,0,discourage_Z3,z,4.0,6295,2,11239,typicality
4,0,discourage_A1,a,2.0,5405,2,11239,typicality
5,0,discourage_Y5,y,11.0,4089,2,11239,typicality
6,0,discourage_X1,x,2.0,4738,2,11239,typicality
7,0,discourage_Z5,z,3.0,2654,2,11239,typicality
8,0,discourage_A3,a,3.0,1510,2,11239,typicality
9,0,discourage_W4,w,0.9999999999999996,3249,2,11239,typicality
10,0,discourage_B2,b,3.0,3586,2,11239,typicality
11,0,discourage_A2,a,3.0,1199,2,11239,typicality
12,0,discourage_X7,x,2.0,3121,2,11239,typicality
13,0,discourage_W5,w,0.9999999999999996,3417,2,11239,typicality
14,0,discourage_Z4,z,4.0,5951,2,11239,typicality
15,0,discourage_B3,b,4.0,2426,2,11239,typicality
16,0,discourage_W1,w,2.0,3251,2,11239,typicality
17,0,discourage_Y4,y,11.0,3647,2,11239,typicality
18,0,discourage_X4,x,3.0,2769,2,11239,typicality
19,0,discourage_Z1,z,4.0,2633,2,11239,typicality
20,0,discourage_A0,a,0.9999999999999996,2627,2,11239,typicality
21,0,discourage_W7,w,0.9999999999999996,1259,2,11239,typicality
22,0,discourage_B0,b,9.0,8202,2,11239,typicality
23,0,discourage_Y1,y,12.0,2751,2,11239,typicality
24,0,discourage_B1,b,10.0,4153,2,11239,typicality
25,0,discourage_Y7,y,11.0,2920,2,11239,typicality
26,0,discourage_X3,x,3.0,3219,2,11239,typicality
27,0,discourage_Z7,z,3.0,2411,2,11239,typicality
0,0,discourage_A3,a,3.0,20971,2,11246,typicality
1,0,discourage_B0,b,2.0,8235,2,11246,typicality
2,0,discourage_Z1,z,4.0,6567,2,11246,typicality
3,0,discourage_W4,w,5.0,9677,2,11246,typicality
4,0,discourage_B3,b,3.0,8709,2,11246,typicality
5,0,discourage_W7,w,5.0,3397,2,11246,typicality
6,0,discourage_W5,w,6.0,2506,2,11246,typicality
7,0,discourage_Z5,z,3.0,5971,2,11246,typicality
8,0,discourage_Y3,y,11.0,4466,2,11246,typicality
9,0,discourage_W1,w,7.0,5154,2,11246,typicality
10,0,discourage_X7,x,0.9999999999999996,3586,2,11246,typicality
11,0,discourage_Y5,y,12.0,9441,2,11246,typicality
12,0,discourage_Y1,y,11.0,5026,2,11246,typicality
13,0,discourage_Z4,z,3.0,3507,2,11246,typicality
14,0,discourage_Z3,z,4.0,5124,2,11246,typicality
15,0,discourage_X5,x,2.0,7756,2,11246,typicality
16,0,discourage_B1,b,0.9999999999999996,4674,2,11246,typicality
17,0,discourage_A1,a,2.0,5112,2,11246,typicality
18,0,discourage_A2,a,0.9999999999999996,18117,2,11246,typicality
19,0,discourage_X1,x,0.9999999999999996,7750,2,11246,typicality
20,0,discourage_W3,w,4.0,4661,2,11246,typicality
21,0,discourage_Z7,z,4.0,7075,2,11246,typicality
22,0,discourage_Y7,y,8.0,5050,2,11246,typicality
23,0,discourage_X4,x,2.0,8936,2,11246,typicality
24,0,discourage_A0,a,3.0,11821,2,11246,typicality
25,0,discourage_Y4,y,11.0,5585,2,11246,typicality
26,0,discourage_X3,x,3.0,7240,2,11246,typicality
27,0,discourage_B2,b,2.0,5572,2,11246,typicality
0,0,discourage_Z4,z,12.0,16961,2,11248,typicality
1,0,discourage_A0,a,0.9999999999999996,5978,2,11248,typicality
2,0,discourage_W5,w,2.0,5498,2,11248,typicality
3,0,discourage_X7,x,0.0,5609,2,11248,typicality
4,0,discourage_W3,w,8.0,11534,2,11248,typicality
5,0,discourage_B3,b,10.0,4551,2,11248,typicality
6,0,discourage_A1,a,3.0,5523,2,11248,typicality
7,0,discourage_Y3,y,13.0,4435,2,11248,typicality
8,0,discourage_Z5,z,12.0,3738,2,11248,typicality
9,0,discourage_W1,w,0.0,3530,2,11248,typicality
10,0,discourage_Y7,y,12.0,2995,2,11248,typicality
11,0,discourage_Z1,z,13.0,2450,2,11248,typicality
12,0,discourage_Y5,y,12.0,2923,2,11248,typicality
13,0,discourage_Y4,y,12.0,1634,2,11248,typicality
14,0,discourage_X5,x,0.0,2707,2,11248,typicality
15,0,discourage_B1,b,10.0,5219,2,11248,typicality
16,0,discourage_Z3,z,13.0,3059,2,11248,typicality
17,0,discourage_X1,x,0.0,4579,2,11248,typicality
18,0,discourage_A3,a,4.0,6687,2,11248,typicality
19,0,discourage_B2,b,8.0,3970,2,11248,typicality
20,0,discourage_X4,x,0.0,3267,2,11248,typicality
21,0,discourage_Z7,z,12.0,4907,2,11248,typicality
22,0,discourage_W7,w,0.0,4539,2,11248,typicality
23,0,discourage_W4,w,0.0,1218,2,11248,typicality
24,0,discourage_B0,b,3.0,4973,2,11248,typicality
25,0,discourage_Y1,y,10.0,3004,2,11248,typicality
26,0,discourage_A2,a,9.0,3243,2,11248,typicality
27,0,discourage_X3,x,4.0,4268,2,11248,typicality
0,0,discourage_Z7,z,10.0,14794,2,11250,typicality
1,0,discourage_A2,a,13.0,4630,2,11250,typicality
2,0,discourage_Z5,z,13.0,1011,2,11250,typicality
3,0,discourage_X5,x,0.0,2866,2,11250,typicality
4,0,discourage_X4,x,0.0,1451,2,11250,typicality
5,0,discourage_Z4,z,7.0,5195,2,11250,typicality
6,0,discourage_Y3,y,9.0,3225,2,11250,typicality
7,0,discourage_X7,x,0.0,2309,2,11250,typicality
8,0,discourage_W4,w,0.0,2134,2,11250,typicality
9,0,discourage_A0,a,0.9999999999999996,3509,2,11250,typicality
10,0,discourage_B1,b,11.0,3907,2,11250,typicality
11,0,discourage_W5,w,0.0,2323,2,11250,typicality
12,0,discourage_X3,x,0.0,1632,2,11250,typicality
13,0,discourage_Y1,y,8.0,2759,2,11250,typicality
14,0,discourage_A3,a,11.0,3242,2,11250,typicality
15,0,discourage_Y4,y,8.0,3755,2,11250,typicality
16,0,discourage_Y7,y,8.0,1514,2,11250,typicality
17,0,discourage_W3,w,4.0,3672,2,11250,typicality
18,0,discourage_A1,a,0.9999999999999996,3852,2,11250,typicality
19,0,discourage_W7,w,0.9999999999999996,1142,2,11250,typicality
20,0,discourage_X1,x,0.0,3152,2,11250,typicality
21,0,discourage_B0,b,10.0,3423,2,11250,typicality
22,0,discourage_B2,b,10.0,1070,2,11250,typicality
23,0,discourage_Z1,z,10.0,2829,2,11250,typicality
24,0,discourage_Z3,z,10.0,1146,2,11250,typicality
25,0,discourage_B3,b,10.0,3298,2,11250,typicality
26,0,discourage_Y5,y,8.0,3052,2,11250,typicality
27,0,discourage_W1,w,0.0,2552,2,11250,typicality
0,0,discourage_W3,w,3.0,18925,2,11252,typicality
1,0,discourage_B0,b,9.0,7077,2,11252,typicality
2,0,discourage_W7,w,2.0,5863,2,11252,typicality
3,0,discourage_B1,b,9.0,5564,2,11252,typicality
4,0,discourage_X3,x,2.0,5499,2,11252,typicality
5,0,discourage_Z3,z,10.0,4391,2,11252,typicality
6,0,discourage_X7,x,0.9999999999999996,7770,2,11252,typicality
7,0,discourage_Z5,z,8.0,3504,2,11252,typicality
8,0,discourage_X1,x,0.9999999999999996,8114,2,11252,typicality
9,0,discourage_Z7,z,8.0,4859,2,11252,typicality
10,0,discourage_X4,x,2.0,2561,2,11252,typicality
11,0,discourage_Z1,z,9.0,4902,2,11252,typicality
12,0,discourage_A2,a,6.0,7897,2,11252,typicality
13,0,discourage_B3,b,8.0,2179,2,11252,typicality
14,0,discourage_X5,x,0.0,2479,2,11252,typicality
15,0,discourage_Y5,y,12.0,2575,2,11252,typicality
16,0,discourage_A1,a,0.9999999999999996,2997,2,11252,typicality
17,0,discourage_W4,w,4.0,3450,2,11252,typicality
18,0,discourage_W1,w,4.0,1685,2,11252,typicality
19,0,discourage_Y7,y,9.0,2100,2,11252,typicality
20,0,discourage_W5,w,4.0,3203,2,11252,typicality
21,0,discourage_A0,a,2.0,2764,2,11252,typicality
22,0,discourage_Y4,y,9.0,2204,2,11252,typicality
23,0,discourage_Y3,y,12.0,4371,2,11252,typicality
24,0,discourage_Z4,z,10.0,3275,2,11252,typicality
25,0,discourage_A3,a,8.0,3198,2,11252,typicality
26,0,discourage_Y1,y,13.0,4010,2,11252,typicality
27,0,discourage_B2,b,8.0,4257,2,11252,typicality
0,0,discourage_X4,x,2.0,17022,2,11254,typicality
1,0,discourage_A3,a,4.0,6481,2,11254,typicality
2,0,discourage_Y1,y,11.0,9528,2,11254,typicality
3,0,discourage_Z7,z,8.0,2994,2,11254,typicality
4,0,discourage_Y5,y,11.0,2531,2,11254,typicality
5,0,discourage_Y4,y,11.0,1050,2,11254,typicality
6,0,discourage_W5,w,3.0,3673,2,11254,typicality
7,0,discourage_Z3,z,8.0,2591,2,11254,typicality
8,0,discourage_Z5,z,4.0,9648,2,11254,typicality
9,0,discourage_B2,b,3.0,1810,2,11254,typicality
10,0,discourage_Y7,y,11.0,4275,2,11254,typicality
11,0,discourage_Z4,z,8.0,2786,2,11254,typicality
12,0,discourage_B0,b,5.0,3522,2,11254,typicality
13,0,discourage_A1,a,0.0,2394,2,11254,typicality
14,0,discourage_W3,w,2.0,2617,2,11254,typicality
15,0,discourage_W4,w,0.9999999999999996,3489,2,11254,typicality
16,0,discourage_X1,x,0.0,3955,2,11254,typicality
17,0,discourage_W1,w,2.0,2811,2,11254,typicality
18,0,discourage_X7,x,0.0,2051,2,11254,typicality
19,0,discourage_X3,x,0.9999999999999996,2329,2,11254,typicality
20,0,discourage_W7,w,2.0,2347,2,11254,typicality
21,0,discourage_X5,x,0.0,1867,2,11254,typicality
22,0,discourage_Z1,z,8.0,9309,2,11254,typicality
23,0,discourage_B1,b,5.0,2530,2,11254,typicality
24,0,discourage_A2,a,3.0,2030,2,11254,typicality
25,0,discourage_B3,b,4.0,2163,2,11254,typicality
26,0,discourage_Y3,y,12.0,2499,2,11254,typicality
27,0,discourage_A0,a,5.0,2875,2,11254,typicality
0,0,discourage_Z7,z,4.0,10371,2,11256,typicality
1,0,discourage_Y4,y,12.0,3591,2,11256,typicality
2,0,discourage_X5,x,0.0,2206,2,11256,typicality
3,0,discourage_B3,b,4.0,3922,2,11256,typicality
4,0,discourage_X4,x,0.0,1842,2,11256,typicality
5,0,discourage_A0,a,2.0,1803,2,11256,typicality
6,0,discourage_A1,a,0.9999999999999996,1978,2,11256,typicality
7,0,discourage_W3,w,5.0,2387,2,11256,typicality
8,0,discourage_Y3,y,13.0,2642,2,11256,typicality
9,0,discourage_W4,w,5.0,2490,2,11256,typicality
10,0,discourage_B1,b,5.0,5501,2,11256,typicality
11,0,discourage_A3,a,2.0,1785,2,11256,typicality
12,0,discourage_Z3,z,7.0,6320,2,11256,typicality
13,0,discourage_B0,b,6.0,2251,2,11256,typicality
14,0,discourage_W7,w,4.0,2061,2,11256,typicality
15,0,discourage_Y5,y,12.0,4227,2,11256,typicality
16,0,discourage_Y7,y,11.0,1729,2,11256,typicality
17,0,discourage_A2,a,2.0,3930,2,11256,typicality
18,0,discourage_Z1,z,7.0,2941,2,11256,typicality
19,0,discourage_X1,x,0.9999999999999996,4511,2,11256,typicality
20,0,discourage_X3,x,0.9999999999999996,1131,2,11256,typicality
21,0,discourage_Z5,z,0.9999999999999996,2714,2,11256,typicality
22,0,discourage_X7,x,0.0,2444,2,11256,typicality
23,0,discourage_Z4,z,0.9999999999999996,1986,2,11256,typicality
24,0,discourage_W1,w,5.0,2179,2,11256,typicality
25,0,discourage_Y1,y,13.0,4123,2,11256,typicality
26,0,discourage_B2,b,6.0,2485,2,11256,typicality
27,0,discourage_W5,w,5.0,1731,2,11256,typicality
0,0,discourage_Y7,y,11.0,10841,2,11258,typicality
1,0,discourage_X1,x,2.0,4156,2,11258,typicality
2,0,discourage_X5,x,2.0,2501,2,11258,typicality
3,0,discourage_W4,w,4.0,5659,2,11258,typicality
4,0,discourage_Y5,y,10.0,5149,2,11258,typicality
5,0,discourage_X7,x,3.0,2719,2,11258,typicality
6,0,discourage_W7,w,3.0,3231,2,11258,typicality
7,0,discourage_W1,w,4.0,2810,2,11258,typicality
8,0,discourage_B0,b,5.0,8217,2,11258,typicality
9,0,discourage_Z5,z,3.0,3149,2,11258,typicality
10,0,discourage_Z7,z,3.0,1407,2,11258,typicality
11,0,discourage_Z4,z,3.0,1121,2,11258,typicality
12,0,discourage_X4,x,3.0,1536,2,11258,typicality
13,0,discourage_A0,a,4.0,4869,2,11258,typicality
14,0,discourage_Y3,y,8.0,4501,2,11258,typicality
15,0,discourage_W3,w,4.0,9977,2,11258,typicality
16,0,discourage_Y4,y,9.0,3458,2,11258,typicality
17,0,discourage_Z1,z,10.0,3388,2,11258,typicality
18,0,discourage_B2,b,5.0,4097,2,11258,typicality
19,0,discourage_W5,w,4.0,4721,2,11258,typicality
20,0,discourage_A1,a,4.0,1604,2,11258,typicality
21,0,discourage_Z3,z,3.0,3482,2,11258,typicality
22,0,discourage_A2,a,3.0,2896,2,11258,typicality
23,0,discourage_B1,b,10.0,3816,2,11258,typicality
24,0,discourage_X3,x,4.0,2407,2,11258,typicality
25,0,discourage_B3,b,11.0,3186,2,11258,typicality
26,0,discourage_Y1,y,9.0,7503,2,11258,typicality
27,0,discourage_A3,a,4.0,3180,2,11258,typicality
0,0,discourage_B3,b,13.0,6027,2,11260,typicality
1,0,discourage_W1,w,2.0,3638,2,11260,typicality
2,0,discourage_X7,x,0.0,2754,2,11260,typicality
3,0,discourage_Y4,y,8.0,3090,2,11260,typicality
4,0,discourage_X5,x,3.0,3753,2,11260,typicality
5,0,discourage_Y7,y,9.0,3571,2,11260,typicality
6,0,discourage_Y1,y,10.0,2421,2,11260,typicality
7,0,discourage_Z3,z,6.0,5067,2,11260,typicality
8,0,discourage_Z7,z,6.0,3075,2,11260,typicality
9,0,discourage_Y3,y,9.0,2388,2,11260,typicality
10,0,discourage_A3,a,7.0,3053,2,11260,typicality
11,0,discourage_A1,a,4.0,2693,2,11260,typicality
12,0,discourage_W3,w,3.0,1707,2,11260,typicality
13,0,discourage_Z5,z,5.0,2617,2,11260,typicality
14,0,discourage_B2,b,8.0,1930,2,11260,typicality
15,0,discourage_W4,w,4.0,1795,2,11260,typicality
16,0,discourage_X1,x,3.0,1962,2,11260,typicality
17,0,discourage_W5,w,4.0,1795,2,11260,typicality
18,0,discourage_X4,x,3.0,2554,2,11260,typicality
19,0,discourage_A2,a,4.0,2508,2,11260,typicality
20,0,discourage_X3,x,2.0,1989,2,11260,typicality
21,0,discourage_Y5,y,10.0,3622,2,11260,typicality
22,0,discourage_Z4,z,10.0,826,2,11260,typicality
23,0,discourage_Z1,z,10.0,1529,2,11260,typicality
24,0,discourage_B1,b,12.0,2824,2,11260,typicality
25,0,discourage_B0,b,12.0,1243,2,11260,typicality
26,0,discourage_A0,a,2.0,2395,2,11260,typicality
27,0,discourage_W7,w,2.0,396,2,11260,typicality
0,0,discourage_B2,b,4.0,13513,2,11262,typicality
1,0,discourage_A1,a,2.0,3298,2,11262,typicality
2,0,discourage_A2,a,4.0,2804,2,11262,typicality
3,0,discourage_Y1,y,13.0,2850,2,11262,typicality
4,0,discourage_B3,b,8.0,3050,2,11262,typicality
5,0,discourage_B0,b,5.0,3458,2,11262,typicality
6,0,discourage_Y7,y,11.0,3702,2,11262,typicality
7,0,discourage_Z3,z,9.0,2737,2,11262,typicality
8,0,discourage_W7,w,4.0,2499,2,11262,typicality
9,0,discourage_X5,x,0.0,2778,2,11262,typicality
10,0,discourage_W4,w,3.0,2455,2,11262,typicality
11,0,discourage_X7,x,0.9999999999999996,2314,2,11262,typicality
12,0,discourage_W1,w,5.0,2770,2,11262,typicality
13,0,discourage_Z7,z,9.0,6043,2,11262,typicality
14,0,discourage_X4,x,4.0,3803,2,11262,typicality
15,0,discourage_Y3,y,13.0,2282,2,11262,typicality
16,0,discourage_A3,a,5.0,5587,2,11262,typicality
17,0,discourage_Z5,z,6.0,2123,2,11262,typicality
18,0,discourage_Z4,z,7.0,2701,2,11262,typicality
19,0,discourage_B1,b,4.0,3371,2,11262,typicality
20,0,discourage_Z1,z,9.0,4025,2,11262,typicality
21,0,discourage_X3,x,4.0,2850,2,11262,typicality
22,0,discourage_X1,x,2.0,3138,2,11262,typicality
23,0,discourage_W5,w,3.0,2402,2,11262,typicality
24,0,discourage_A0,a,3.0,2257,2,11262,typicality
25,0,discourage_W3,w,4.0,2490,2,11262,typicality
26,0,discourage_Y4,y,13.0,4114,2,11262,typicality
27,0,discourage_Y5,y,12.0,2403,2,11262,typicality
0,0,discourage_Z7,z,9.0,12426,2,11264,typicality
1,0,discourage_W3,w,4.0,5022,2,11264,typicality
2,0,discourage_Z4,z,5.0,5484,2,11264,typicality
3,0,discourage_X5,x,2.0,2399,2,11264,typicality
4,0,discourage_Y4,y,10.0,3757,2,11264,typicality
5,0,discourage_X7,x,4.0,3299,2,11264,typicality
6,0,discourage_X4,x,4.0,2035,2,11264,typicality
7,0,discourage_B1,b,4.0,2507,2,11264,typicality
8,0,discourage_W7,w,4.0,2610,2,11264,typicality
9,0,discourage_W4,w,3.0,2150,2,11264,typicality
10,0,discourage_A0,a,3.0,1562,2,11264,typicality
11,0,discourage_A2,a,3.0,2634,2,11264,typicality
12,0,discourage_A1,a,3.0,940,2,11264,typicality
13,0,discourage_B0,b,3.0,2421,2,11264,typicality
14,0,discourage_Z3,z,5.0,3406,2,11264,typicality
15,0,discourage_X1,x,5.0,3106,2,11264,typicality
16,0,discourage_W1,w,3.0,4815,2,11264,typicality
17,0,discourage_X3,x,3.0,1683,2,11264,typicality
18,0,discourage_Y7,y,8.0,4846,2,11264,typicality
19,0,discourage_Y3,y,8.0,1155,2,11264,typicality
20,0,discourage_W5,w,5.0,2074,2,11264,typicality
21,0,discourage_A3,a,3.0,2891,2,11264,typicality
22,0,discourage_Y1,y,11.0,3618,2,11264,typicality
23,0,discourage_Z1,z,11.0,2072,2,11264,typicality
24,0,discourage_B2,b,3.0,3054,2,11264,typicality
25,0,discourage_Z5,z,3.0,1530,2,11264,typicality
26,0,discourage_B3,b,3.0,1085,2,11264,typicality
27,0,discourage_Y5,y,8.0,3560,2,11264,typicality
0,0,discourage_W7,w,8.0,12651,2,11266,typicality
1,0,discourage_W4,w,10.0,5176,2,11266,typicality
2,0,discourage_Z3,z,5.0,3717,2,11266,typicality
3,0,discourage_A1,a,6.0,3128,2,11266,typicality
4,0,discourage_B1,b,6.0,1769,2,11266,typicality
5,0,discourage_A0,a,3.0,3452,2,11266,typicality
6,0,discourage_X4,x,3.0,3741,2,11266,typicality
7,0,discourage_Z5,z,3.0,2235,2,11266,typicality
8,0,discourage_Y7,y,9.0,6846,2,11266,typicality
9,0,discourage_B3,b,7.0,5258,2,11266,typicality
10,0,discourage_B0,b,9.0,2802,2,11266,typicality
11,0,discourage_W3,w,10.0,2126,2,11266,typicality
12,0,discourage_Z7,z,3.0,3254,2,11266,typicality
13,0,discourage_X5,x,2.0,3305,2,11266,typicality
14,0,discourage_Y1,y,10.0,3172,2,11266,typicality
15,0,discourage_A2,a,5.0,3514,2,11266,typicality
16,0,discourage_W1,w,11.0,3333,2,11266,typicality
17,0,discourage_Z4,z,3.0,4327,2,11266,typicality
18,0,discourage_W5,w,5.0,3513,2,11266,typicality
19,0,discourage_B2,b,5.0,4933,2,11266,typicality
20,0,discourage_Z1,z,4.0,2594,2,11266,typicality
21,0,discourage_Y3,y,10.0,2614,2,11266,typicality
22,0,discourage_Y5,y,10.0,877,2,11266,typicality
23,0,discourage_X7,x,3.0,5508,2,11266,typicality
24,0,discourage_Y4,y,9.0,2466,2,11266,typicality
25,0,discourage_A3,a,3.0,2386,2,11266,typicality
26,0,discourage_X3,x,3.0,1987,2,11266,typicality
27,0,discourage_X1,x,3.0,3376,2,11266,typicality
0,0,discourage_Z1,z,3.0,12246,2,11268,typicality
1,0,discourage_W1,w,3.0,3952,2,11268,typicality
2,0,discourage_Y7,y,5.0,5833,2,11268,typicality
3,0,discourage_A3,a,0.9999999999999996,4986,2,11268,typicality
4,0,discourage_X3,x,9.0,4531,2,11268,typicality
5,0,discourage_X1,x,10.0,2513,2,11268,typicality
6,0,discourage_X7,x,11.0,1961,2,11268,typicality
7,0,discourage_A2,a,8.0,6954,2,11268,typicality
8,0,discourage_B0,b,7.0,5965,2,11268,typicality
9,0,discourage_Y5,y,9.0,6217,2,11268,typicality
10,0,discourage_W4,w,3.0,2238,2,11268,typicality
11,0,discourage_W3,w,3.0,1106,2,11268,typicality
12,0,discourage_X5,x,12.0,3811,2,11268,typicality
13,0,discourage_B3,b,3.0,10962,2,11268,typicality
14,0,discourage_Z5,z,2.0,4515,2,11268,typicality
15,0,discourage_Y4,y,8.0,3003,2,11268,typicality
16,0,discourage_W7,w,5.0,2059,2,11268,typicality
17,0,discourage_B1,b,3.0,2778,2,11268,typicality
18,0,discourage_B2,b,3.0,1120,2,11268,typicality
19,0,discourage_A1,a,10.0,2839,2,11268,typicality
20,0,discourage_Z3,z,0.0,1964,2,11268,typicality
21,0,discourage_X4,x,13.0,2802,2,11268,typicality
22,0,discourage_A0,a,13.0,2746,2,11268,typicality
23,0,discourage_W5,w,5.0,2957,2,11268,typicality
24,0,discourage_Z4,z,0.0,2285,2,11268,typicality
25,0,discourage_Z7,z,0.0,730,2,11268,typicality
26,0,discourage_Y3,y,8.0,2847,2,11268,typicality
27,0,discourage_Y1,y,10.0,3410,2,11268,typicality
0,0,discourage_W4,w,0.9999999999999996,22982,2,11270,typicality
1,0,discourage_W3,w,2.0,7019,2,11270,typicality
2,0,discourage_Y4,y,11.0,5567,2,11270,typicality
3,0,discourage_A2,a,10.0,3243,2,11270,typicality
4,0,discourage_X3,x,4.0,3922,2,11270,typicality
5,0,discourage_B2,b,10.0,3010,2,11270,typicality
6,0,discourage_Y1,y,12.0,1724,2,11270,typicality
7,0,discourage_Z3,z,2.0,5267,2,11270,typicality
8,0,discourage_Y5,y,12.0,6983,2,11270,typicality
9,0,discourage_B1,b,10.0,2307,2,11270,typicality
10,0,discourage_Z7,z,0.0,2783,2,11270,typicality
11,0,discourage_W7,w,8.0,6929,2,11270,typicality
12,0,discourage_B3,b,4.0,2155,2,11270,typicality
13,0,discourage_Z4,z,0.0,2187,2,11270,typicality
14,0,discourage_B0,b,12.0,2498,2,11270,typicality
15,0,discourage_W1,w,4.0,2734,2,11270,typicality
16,0,discourage_A3,a,8.0,3415,2,11270,typicality
17,0,discourage_W5,w,5.0,3706,2,11270,typicality
18,0,discourage_A1,a,4.0,2270,2,11270,typicality
19,0,discourage_Z1,z,3.0,1801,2,11270,typicality
20,0,discourage_Y3,y,11.0,2503,2,11270,typicality
21,0,discourage_Y7,y,10.0,3570,2,11270,typicality
22,0,discourage_X1,x,0.9999999999999996,2730,2,11270,typicality
23,0,discourage_A0,a,2.0,2082,2,11270,typicality
24,0,discourage_X5,x,0.9999999999999996,2054,2,11270,typicality
25,0,discourage_X4,x,0.0,2147,2,11270,typicality
26,0,discourage_Z5,z,11.0,3743,2,11270,typicality
27,0,discourage_X7,x,0.0,2706,2,11270,typicality
0,0,discourage_Z3,z,11.0,13175,2,11272,typicality
1,0,discourage_Y3,y,5.0,4952,2,11272,typicality
2,0,discourage_W3,w,8.0,5683,2,11272,typicality
3,0,discourage_A0,a,3.0,2783,2,11272,typicality
4,0,discourage_X7,x,3.0,1977,2,11272,typicality
5,0,discourage_B0,b,13.0,2557,2,11272,typicality
6,0,discourage_B1,b,13.0,1276,2,11272,typicality
7,0,discourage_B3,b,13.0,840,2,11272,typicality
8,0,discourage_Y5,y,4.0,2806,2,11272,typicality
9,0,discourage_A3,a,2.0,4067,2,11272,typicality
10,0,discourage_X4,x,6.0,4025,2,11272,typicality
11,0,discourage_B2,b,11.0,5490,2,11272,typicality
12,0,discourage_Z1,z,2.0,3086,2,11272,typicality
13,0,discourage_A2,a,2.0,3019,2,11272,typicality
14,0,discourage_W7,w,5.0,7537,2,11272,typicality
15,0,discourage_W1,w,5.0,1810,2,11272,typicality
16,0,discourage_Y7,y,3.0,2007,2,11272,typicality
17,0,discourage_X5,x,11.0,2685,2,11272,typicality
18,0,discourage_X1,x,10.0,7469,2,11272,typicality
19,0,discourage_W5,w,0.0,3708,2,11272,typicality
20,0,discourage_X3,x,5.0,3450,2,11272,typicality
21,0,discourage_W4,w,5.0,2401,2,11272,typicality
22,0,discourage_Y1,y,10.0,7050,2,11272,typicality
23,0,discourage_Z7,z,3.0,4363,2,11272,typicality
24,0,discourage_Z4,z,3.0,652,2,11272,typicality
25,0,discourage_Z5,z,3.0,488,2,11272,typicality
26,0,discourage_Y4,y,3.0,909,2,11272,typicality
27,0,discourage_A1,a,6.0,9303,2,11272,typicality
0,0,discourage_Z1,z,9.0,17426,2,11274,typicality
1,0,discourage_W4,w,0.0,2516,2,11274,typicality
2,0,discourage_W5,w,0.0,1825,2,11274,typicality
3,0,discourage_B2,b,2.0,3285,2,11274,typicality
4,0,discourage_Y4,y,13.0,3505,2,11274,typicality
5,0,discourage_W7,w,0.0,4834,2,11274,typicality
6,0,discourage_X4,x,0.0,1226,2,11274,typicality
7,0,discourage_A0,a,0.0,830,2,11274,typicality
8,0,discourage_Y3,y,13.0,3106,2,11274,typicality
9,0,discourage_Z7,z,5.0,4298,2,11274,typicality
10,0,discourage_Z5,z,5.0,1043,2,11274,typicality
11,0,discourage_Y5,y,13.0,2115,2,11274,typicality
12,0,discourage_Y1,y,13.0,2459,2,11274,typicality
13,0,discourage_X3,x,0.0,3898,2,11274,typicality
14,0,discourage_X1,x,0.0,727,2,11274,typicality
15,0,discourage_Z3,z,13.0,2442,2,11274,typicality
16,0,discourage_A2,a,3.0,5289,2,11274,typicality
17,0,discourage_Y7,y,12.0,2603,2,11274,typicality
18,0,discourage_A1,a,0.0,2411,2,11274,typicality
19,0,discourage_W3,w,0.0,795,2,11274,typicality
20,0,discourage_Z4,z,13.0,2145,2,11274,typicality
21,0,discourage_B1,b,8.0,5909,2,11274,typicality
22,0,discourage_W1,w,0.0,2010,2,11274,typicality
23,0,discourage_B0,b,4.0,4779,2,11274,typicality
24,0,discourage_B3,b,5.0,8768,2,11274,typicality
25,0,discourage_A3,a,5.0,861,2,11274,typicality
26,0,discourage_X5,x,0.0,2044,2,11274,typicality
27,0,discourage_X7,x,0.0,843,2,11274,typicality
0,0,discourage_A0,a,2.0,24134,2,11276,typicality
1,0,discourage_W3,w,10.0,14290,2,11276,typicality
2,0,discourage_X7,x,0.0,3501,2,11276,typicality
3,0,discourage_A1,a,0.0,2292,2,11276,typicality
4,0,discourage_Y3,y,13.0,4623,2,11276,typicality
5,0,discourage_Y4,y,13.0,3276,2,11276,typicality
6,0,discourage_W4,w,2.0,12596,2,11276,typicality
7,0,discourage_W1,w,2.0,4358,2,11276,typicality
8,0,discourage_B1,b,0.0,2755,2,11276,typicality
9,0,discourage_Z4,z,0.0,1219,2,11276,typicality
10,0,discourage_Z7,z,0.0,1276,2,11276,typicality
11,0,discourage_B3,b,0.0,1111,2,11276,typicality
12,0,discourage_X5,x,0.0,1074,2,11276,typicality
13,0,discourage_Z1,z,0.0,2230,2,11276,typicality
14,0,discourage_B0,b,0.9999999999999996,4076,2,11276,typicality
15,0,discourage_A2,a,0.9999999999999996,3149,2,11276,typicality
16,0,discourage_W7,w,2.0,5171,2,11276,typicality
17,0,discourage_Z3,z,0.0,8594,2,11276,typicality
18,0,discourage_Y5,y,11.0,4148,2,11276,typicality
19,0,discourage_X4,x,0.0,2966,2,11276,typicality
20,0,discourage_Z5,z,0.0,2059,2,11276,typicality
21,0,discourage_A3,a,0.0,1550,2,11276,typicality
22,0,discourage_Y1,y,12.0,4416,2,11276,typicality
23,0,discourage_B2,b,4.0,9355,2,11276,typicality
24,0,discourage_Y7,y,13.0,5620,2,11276,typicality
25,0,discourage_X3,x,0.0,6113,2,11276,typicality
26,0,discourage_W5,w,2.0,4439,2,11276,typicality
27,0,discourage_X1,x,0.0,2491,2,11276,typicality
0,0,discourage_Y1,y,4.0,8273,2,11278,typicality
1,0,discourage_Y3,y,6.0,7362,2,11278,typicality
2,0,discourage_B0,b,3.0,5323,2,11278,typicality
3,0,discourage_Y7,y,6.0,3170,2,11278,typicality
4,0,discourage_Z3,z,13.0,4117,2,11278,typicality
5,0,discourage_B2,b,4.0,2834,2,11278,typicality
6,0,discourage_Y5,y,6.0,3226,2,11278,typicality
7,0,discourage_W1,w,2.0,5355,2,11278,typicality
8,0,discourage_Z5,z,0.9999999999999996,5074,2,11278,typicality
9,0,discourage_W7,w,2.0,2159,2,11278,typicality
10,0,discourage_X7,x,13.0,3115,2,11278,typicality
11,0,discourage_Y4,y,0.9999999999999996,3448,2,11278,typicality
12,0,discourage_Z1,z,10.0,2489,2,11278,typicality
13,0,discourage_X3,x,4.0,2586,2,11278,typicality
14,0,discourage_X5,x,13.0,2543,2,11278,typicality
15,0,discourage_W5,w,9.0,1904,2,11278,typicality
16,0,discourage_A0,a,8.0,2315,2,11278,typicality
17,0,discourage_A3,a,0.0,2956,2,11278,typicality
18,0,discourage_A1,a,6.0,2754,2,11278,typicality
19,0,discourage_X4,x,7.0,1674,2,11278,typicality
20,0,discourage_B1,b,4.0,2452,2,11278,typicality
21,0,discourage_A2,a,0.9999999999999996,2416,2,11278,typicality
22,0,discourage_Z7,z,7.0,4027,2,11278,typicality
23,0,discourage_W3,w,10.0,1851,2,11278,typicality
24,0,discourage_W4,w,3.0,2747,2,11278,typicality
25,0,discourage_B3,b,8.0,2379,2,11278,typicality
26,0,discourage_X1,x,13.0,3475,2,11278,typicality
27,0,discourage_Z4,z,8.0,2642,2,11278,typicality
0,0,discourage_X5,x,0.9999999999999996,17231,2,11280,typicality
1,0,discourage_B0,b,0.9999999999999996,4770,2,11280,typicality
2,0,discourage_B2,b,0.9999999999999996,1586,2,11280,typicality
3,0,discourage_A3,a,0.9999999999999996,770,2,11280,typicality
4,0,discourage_A2,a,0.9999999999999996,759,2,11280,typicality
5,0,discourage_Z1,z,0.9999999999999996,615,2,11280,typicality
6,0,discourage_Y5,y,11.0,7648,2,11280,typicality
7,0,discourage_B1,b,11.0,1993,2,11280,typicality
8,0,discourage_X4,x,0.9999999999999996,2561,2,11280,typicality
9,0,discourage_W3,w,0.9999999999999996,1042,2,11280,typicality
10,0,discourage_Z4,z,0.9999999999999996,1101,2,11280,typicality
11,0,discourage_W4,w,0.9999999999999996,552,2,11280,typicality
12,0,discourage_W7,w,0.9999999999999996,449,2,11280,typicality
13,0,discourage_Z7,z,0.9999999999999996,1523,2,11280,typicality
14,0,discourage_Z5,z,0.9999999999999996,545,2,11280,typicality
15,0,discourage_X7,x,0.9999999999999996,549,2,11280,typicality
16,0,discourage_A0,a,0.9999999999999996,426,2,11280,typicality
17,0,discourage_Y3,y,11.0,3940,2,11280,typicality
18,0,discourage_X3,x,0.9999999999999996,3567,2,11280,typicality
19,0,discourage_Y1,y,11.0,3115,2,11280,typicality
20,0,discourage_B3,b,11.0,1471,2,11280,typicality
21,0,discourage_A1,a,2.0,2482,2,11280,typicality
22,0,discourage_X1,x,2.0,588,2,11280,typicality
23,0,discourage_Y4,y,11.0,3202,2,11280,typicality
24,0,discourage_Z3,z,11.0,797,2,11280,typicality
25,0,discourage_W1,w,2.0,2026,2,11280,typicality
26,0,discourage_W5,w,2.0,971,2,11280,typicality
27,0,discourage_Y7,y,11.0,2064,2,11280,typicality
0,0,discourage_W3,w,0.0,7478,2,11282,typicality
1,0,discourage_A2,a,3.0,4600,2,11282,typicality
2,0,discourage_Y5,y,13.0,1830,2,11282,typicality
3,0,discourage_B0,b,11.0,2145,2,11282,typicality
4,0,discourage_W1,w,0.0,2291,2,11282,typicality
5,0,discourage_A3,a,0.0,1038,2,11282,typicality
6,0,discourage_X4,x,0.0,1225,2,11282,typicality
7,0,discourage_Y1,y,13.0,2043,2,11282,typicality
8,0,discourage_W5,w,0.0,2463,2,11282,typicality
9,0,discourage_X1,x,0.0,828,2,11282,typicality
10,0,discourage_Z5,z,0.0,819,2,11282,typicality
11,0,discourage_Y7,y,7.0,2858,2,11282,typicality
12,0,discourage_B2,b,4.0,3983,2,11282,typicality
13,0,discourage_W4,w,0.0,1642,2,11282,typicality
14,0,discourage_B1,b,8.0,2267,2,11282,typicality
15,0,discourage_Z3,z,0.0,2629,2,11282,typicality
16,0,discourage_X7,x,0.0,714,2,11282,typicality
17,0,discourage_Y3,y,13.0,2393,2,11282,typicality
18,0,discourage_A1,a,0.0,2294,2,11282,typicality
19,0,discourage_Z4,z,0.0,739,2,11282,typicality
20,0,discourage_Z1,z,0.0,802,2,11282,typicality
21,0,discourage_Z7,z,0.0,714,2,11282,typicality
22,0,discourage_B3,b,3.0,2908,2,11282,typicality
23,0,discourage_A0,a,0.0,1803,2,11282,typicality
24,0,discourage_Y4,y,13.0,1957,2,11282,typicality
25,0,discourage_W7,w,0.0,2061,2,11282,typicality
26,0,discourage_X3,x,0.0,635,2,11282,typicality
27,0,discourage_X5,x,0.0,504,2,11282,typicality
0,0,discourage_W4,w,9.0,15960,2,11284,typicality
1,0,discourage_Z7,z,2.0,5809,2,11284,typicality
2,0,discourage_W5,w,3.0,4413,2,11284,typicality
3,0,discourage_B3,b,11.0,2802,2,11284,typicality
4,0,discourage_B1,b,10.0,2778,2,11284,typicality
5,0,discourage_Y3,y,3.0,4176,2,11284,typicality
6,0,discourage_A3,a,0.0,5025,2,11284,typicality
7,0,discourage_Z1,z,0.9999999999999996,3789,2,11284,typicality
8,0,discourage_B2,b,4.0,2185,2,11284,typicality
9,0,discourage_W3,w,11.0,5442,2,11284,typicality
10,0,discourage_X4,x,13.0,2730,2,11284,typicality
11,0,discourage_A1,a,12.0,3578,2,11284,typicality
12,0,discourage_W1,w,8.0,2323,2,11284,typicality
13,0,discourage_X1,x,13.0,3858,2,11284,typicality
14,0,discourage_Z4,z,2.0,2967,2,11284,typicality
15,0,discourage_Y4,y,5.0,2723,2,11284,typicality
16,0,discourage_Y1,y,5.0,1667,2,11284,typicality
17,0,discourage_Y5,y,4.0,1666,2,11284,typicality
18,0,discourage_B0,b,3.0,2219,2,11284,typicality
19,0,discourage_A0,a,2.0,2047,2,11284,typicality
20,0,discourage_A2,a,0.9999999999999996,2114,2,11284,typicality
21,0,discourage_Z5,z,0.9999999999999996,1227,2,11284,typicality
22,0,discourage_X3,x,0.0,1896,2,11284,typicality
23,0,discourage_W7,w,4.0,3419,2,11284,typicality
24,0,discourage_X7,x,0.0,2004,2,11284,typicality
25,0,discourage_Y7,y,11.0,2235,2,11284,typicality
26,0,discourage_X5,x,4.0,2124,2,11284,typicality
27,0,discourage_Z3,z,12.0,2155,2,11284,typicality
