trial,block,stimId,category,response,accuracy,rt,condition,id,phase
0,0,neutral_A0,a,a,True,3804,3,11225,trainPhase
1,0,neutral_A3,a,b,False,1209,3,11225,trainPhase
2,0,neutral_B0,b,a,False,910,3,11225,trainPhase
3,0,neutral_B3,b,b,True,2845,3,11225,trainPhase
4,0,neutral_A2,a,a,True,1101,3,11225,trainPhase
5,0,neutral_B1,b,b,True,669,3,11225,trainPhase
6,0,neutral_B2,b,b,True,1181,3,11225,trainPhase
7,0,neutral_A1,a,a,True,1149,3,11225,trainPhase
0,1,neutral_B2,b,b,True,742,3,11225,trainPhase
1,1,neutral_A3,a,a,True,1293,3,11225,trainPhase
2,1,neutral_B3,b,b,True,678,3,11225,trainPhase
3,1,neutral_B1,b,b,True,1252,3,11225,trainPhase
4,1,neutral_A2,a,a,True,1088,3,11225,trainPhase
5,1,neutral_B0,b,b,True,744,3,11225,trainPhase
6,1,neutral_A1,a,a,True,518,3,11225,trainPhase
7,1,neutral_A0,a,b,False,821,3,11225,trainPhase
0,2,neutral_A2,a,a,True,1158,3,11225,trainPhase
1,2,neutral_B1,b,b,True,613,3,11225,trainPhase
2,2,neutral_A0,a,a,True,766,3,11225,trainPhase
3,2,neutral_B0,b,a,False,966,3,11225,trainPhase
4,2,neutral_A3,a,a,True,798,3,11225,trainPhase
5,2,neutral_A1,a,b,False,806,3,11225,trainPhase
6,2,neutral_B3,b,a,False,642,3,11225,trainPhase
7,2,neutral_B2,b,b,True,1694,3,11225,trainPhase
0,3,neutral_A1,a,a,True,1030,3,11225,trainPhase
1,3,neutral_B0,b,b,True,1110,3,11225,trainPhase
2,3,neutral_B2,b,b,True,823,3,11225,trainPhase
3,3,neutral_A2,a,a,True,991,3,11225,trainPhase
4,3,neutral_B3,b,b,True,598,3,11225,trainPhase
5,3,neutral_B1,b,a,False,428,3,11225,trainPhase
6,3,neutral_A0,a,a,True,1034,3,11225,trainPhase
7,3,neutral_A3,a,b,False,438,3,11225,trainPhase
0,4,neutral_A0,a,a,True,1121,3,11225,trainPhase
1,4,neutral_A1,a,a,True,1717,3,11225,trainPhase
2,4,neutral_B3,b,b,True,1853,3,11225,trainPhase
3,4,neutral_A2,a,a,True,741,3,11225,trainPhase
4,4,neutral_B1,b,b,True,846,3,11225,trainPhase
5,4,neutral_A3,a,a,True,526,3,11225,trainPhase
6,4,neutral_B0,b,b,True,1166,3,11225,trainPhase
7,4,neutral_B2,b,b,True,1212,3,11225,trainPhase
0,5,neutral_B0,b,b,True,845,3,11225,trainPhase
1,5,neutral_B2,b,b,True,559,3,11225,trainPhase
2,5,neutral_A3,a,a,True,1079,3,11225,trainPhase
3,5,neutral_B3,b,b,True,550,3,11225,trainPhase
4,5,neutral_A1,a,a,True,1029,3,11225,trainPhase
5,5,neutral_A2,a,a,True,701,3,11225,trainPhase
6,5,neutral_A0,a,a,True,1014,3,11225,trainPhase
0,0,neutral_A3,a,a,True,1395,3,11225,subTestPhase
1,0,neutral_X3,x,a,False,1149,3,11225,subTestPhase
2,0,neutral_X6,x,a,False,1014,3,11225,subTestPhase
3,0,neutral_B1,b,b,True,1909,3,11225,subTestPhase
4,0,neutral_A0,a,b,False,822,3,11225,subTestPhase
5,0,neutral_X0,x,b,False,502,3,11225,subTestPhase
6,0,neutral_A2,a,a,True,886,3,11225,subTestPhase
7,0,neutral_B2,b,a,False,494,3,11225,subTestPhase
8,0,neutral_X4,x,a,False,757,3,11225,subTestPhase
9,0,neutral_X5,x,a,False,734,3,11225,subTestPhase
10,0,neutral_A1,a,a,True,453,3,11225,subTestPhase
11,0,neutral_B3,b,b,True,1717,3,11225,subTestPhase
12,0,neutral_X1,x,a,False,910,3,11225,subTestPhase
13,0,neutral_X2,x,b,False,1790,3,11225,subTestPhase
14,0,neutral_B0,b,a,False,1429,3,11225,subTestPhase
15,0,neutral_X7,x,b,False,632,3,11225,subTestPhase
16,0,neutral_X8,x,b,False,623,3,11225,subTestPhase
0,0,neutral_Z6,z,a,False,1302,3,11225,testPhase
1,0,neutral_Z4,z,a,False,972,3,11225,testPhase
2,0,neutral_W2,w,b,False,1235,3,11225,testPhase
3,0,neutral_W5,w,b,False,1054,3,11225,testPhase
4,0,neutral_W8,w,b,False,444,3,11225,testPhase
5,0,neutral_Y0,y,b,False,348,3,11225,testPhase
6,0,neutral_Z0,z,a,False,1374,3,11225,testPhase
7,0,neutral_A0,a,a,True,1038,3,11225,testPhase
8,0,neutral_A1,a,a,True,1111,3,11225,testPhase
9,0,neutral_W4,w,b,False,943,3,11225,testPhase
10,0,neutral_X8,x,b,False,1486,3,11225,testPhase
11,0,neutral_X7,x,b,False,429,3,11225,testPhase
12,0,neutral_B3,b,a,False,1597,3,11225,testPhase
13,0,neutral_X1,x,a,False,1277,3,11225,testPhase
14,0,neutral_W1,w,a,False,1790,3,11225,testPhase
15,0,neutral_A2,a,a,True,1836,3,11225,testPhase
16,0,neutral_X2,x,b,False,2164,3,11225,testPhase
17,0,neutral_W7,w,b,False,2671,3,11225,testPhase
18,0,neutral_B2,b,a,False,661,3,11225,testPhase
19,0,neutral_Z2,z,a,False,1523,3,11225,testPhase
20,0,neutral_Z8,z,a,False,990,3,11225,testPhase
21,0,neutral_Z3,z,a,False,805,3,11225,testPhase
22,0,neutral_Y4,y,b,False,988,3,11225,testPhase
23,0,neutral_Y5,y,b,False,4350,3,11225,testPhase
24,0,neutral_W0,w,a,False,1438,3,11225,testPhase
25,0,neutral_Y6,y,b,False,985,3,11225,testPhase
26,0,neutral_Z5,z,a,False,1090,3,11225,testPhase
27,0,neutral_W6,w,b,False,621,3,11225,testPhase
28,0,neutral_Z7,z,a,False,1807,3,11225,testPhase
29,0,neutral_B0,b,a,False,1325,3,11225,testPhase
30,0,neutral_W3,w,a,False,967,3,11225,testPhase
31,0,neutral_Z1,z,b,False,1350,3,11225,testPhase
32,0,neutral_Y3,y,b,False,1889,3,11225,testPhase
33,0,neutral_X3,x,a,False,998,3,11225,testPhase
34,0,neutral_Y2,y,a,False,922,3,11225,testPhase
35,0,neutral_X0,x,a,False,3670,3,11225,testPhase
36,0,neutral_A3,a,a,True,1126,3,11225,testPhase
37,0,neutral_X6,x,a,False,750,3,11225,testPhase
38,0,neutral_B1,b,a,False,1470,3,11225,testPhase
39,0,neutral_Y1,y,b,False,998,3,11225,testPhase
40,0,neutral_X4,x,a,False,966,3,11225,testPhase
41,0,neutral_Y7,y,b,False,5398,3,11225,testPhase
42,0,neutral_X5,x,a,False,692,3,11225,testPhase
43,0,neutral_Y8,y,b,False,1390,3,11225,testPhase
0,0,neutral_B3,b,a,False,3347,3,11226,trainPhase
1,0,neutral_A3,a,b,False,1819,3,11226,trainPhase
2,0,neutral_A1,a,b,False,3963,3,11226,trainPhase
3,0,neutral_A0,a,b,False,3832,3,11226,trainPhase
4,0,neutral_B0,b,a,False,1976,3,11226,trainPhase
5,0,neutral_B1,b,b,True,1855,3,11226,trainPhase
6,0,neutral_B2,b,b,True,1864,3,11226,trainPhase
7,0,neutral_A2,a,a,True,1794,3,11226,trainPhase
0,1,neutral_A0,a,a,True,1505,3,11226,trainPhase
1,1,neutral_A1,a,a,True,1539,3,11226,trainPhase
2,1,neutral_B1,b,b,True,1567,3,11226,trainPhase
3,1,neutral_B0,b,b,True,1840,3,11226,trainPhase
4,1,neutral_B2,b,b,True,2761,3,11226,trainPhase
5,1,neutral_B3,b,b,True,2100,3,11226,trainPhase
6,1,neutral_A2,a,a,True,997,3,11226,trainPhase
7,1,neutral_A3,a,a,True,873,3,11226,trainPhase
0,2,neutral_A3,a,a,True,733,3,11226,trainPhase
1,2,neutral_B2,b,b,True,1631,3,11226,trainPhase
2,2,neutral_A2,a,a,True,771,3,11226,trainPhase
3,2,neutral_B0,b,b,True,1296,3,11226,trainPhase
0,0,neutral_X3,x,a,False,3814,3,11226,subTestPhase
1,0,neutral_X8,x,a,False,1577,3,11226,subTestPhase
2,0,neutral_B3,b,b,True,1535,3,11226,subTestPhase
3,0,neutral_A0,a,a,True,1344,3,11226,subTestPhase
4,0,neutral_B2,b,b,True,1073,3,11226,subTestPhase
5,0,neutral_B1,b,b,True,1065,3,11226,subTestPhase
6,0,neutral_A2,a,a,True,941,3,11226,subTestPhase
7,0,neutral_A3,a,a,True,774,3,11226,subTestPhase
8,0,neutral_A1,a,b,False,1289,3,11226,subTestPhase
9,0,neutral_X0,x,a,False,3660,3,11226,subTestPhase
10,0,neutral_X6,x,a,False,877,3,11226,subTestPhase
11,0,neutral_X2,x,a,False,969,3,11226,subTestPhase
12,0,neutral_X1,x,a,False,1058,3,11226,subTestPhase
13,0,neutral_X5,x,a,False,1060,3,11226,subTestPhase
14,0,neutral_B0,b,b,True,1063,3,11226,subTestPhase
15,0,neutral_X7,x,a,False,964,3,11226,subTestPhase
16,0,neutral_X4,x,a,False,1322,3,11226,subTestPhase
0,0,neutral_X6,x,a,False,1281,3,11226,testPhase
1,0,neutral_Y0,y,b,False,1114,3,11226,testPhase
2,0,neutral_Y6,y,b,False,858,3,11226,testPhase
3,0,neutral_W7,w,a,False,1345,3,11226,testPhase
4,0,neutral_Z8,z,a,False,1495,3,11226,testPhase
5,0,neutral_A0,a,a,True,1984,3,11226,testPhase
6,0,neutral_W6,w,a,False,4343,3,11226,testPhase
7,0,neutral_X4,x,a,False,1698,3,11226,testPhase
8,0,neutral_B1,b,b,True,1533,3,11226,testPhase
9,0,neutral_B0,b,b,True,1270,3,11226,testPhase
10,0,neutral_B3,b,a,False,2027,3,11226,testPhase
11,0,neutral_A1,a,a,True,1199,3,11226,testPhase
12,0,neutral_B2,b,b,True,2993,3,11226,testPhase
13,0,neutral_X8,x,a,False,892,3,11226,testPhase
14,0,neutral_W2,w,a,False,1689,3,11226,testPhase
15,0,neutral_W5,w,a,False,1232,3,11226,testPhase
16,0,neutral_Y3,y,b,False,2799,3,11226,testPhase
17,0,neutral_W4,w,a,False,1395,3,11226,testPhase
18,0,neutral_W8,w,a,False,844,3,11226,testPhase
19,0,neutral_Z2,z,a,False,1817,3,11226,testPhase
20,0,neutral_A3,a,a,True,1255,3,11226,testPhase
21,0,neutral_W1,w,a,False,1605,3,11226,testPhase
22,0,neutral_X7,x,a,False,1182,3,11226,testPhase
23,0,neutral_X2,x,a,False,1052,3,11226,testPhase
24,0,neutral_Z3,z,b,False,1558,3,11226,testPhase
25,0,neutral_Z1,z,a,False,3294,3,11226,testPhase
26,0,neutral_Z5,z,a,False,812,3,11226,testPhase
27,0,neutral_W0,w,a,False,1634,3,11226,testPhase
28,0,neutral_W3,w,a,False,1031,3,11226,testPhase
29,0,neutral_Y5,y,b,False,1030,3,11226,testPhase
30,0,neutral_Y1,y,b,False,1078,3,11226,testPhase
31,0,neutral_Y4,y,b,False,1109,3,11226,testPhase
32,0,neutral_Z4,z,a,False,1838,3,11226,testPhase
33,0,neutral_Y8,y,b,False,1002,3,11226,testPhase
34,0,neutral_X5,x,a,False,965,3,11226,testPhase
35,0,neutral_X1,x,a,False,923,3,11226,testPhase
36,0,neutral_A2,a,a,True,1408,3,11226,testPhase
37,0,neutral_Z6,z,a,False,1698,3,11226,testPhase
38,0,neutral_Z0,z,a,False,1053,3,11226,testPhase
39,0,neutral_X3,x,a,False,1003,3,11226,testPhase
40,0,neutral_Y2,y,b,False,1076,3,11226,testPhase
41,0,neutral_Z7,z,a,False,1675,3,11226,testPhase
42,0,neutral_Y7,y,b,False,1344,3,11226,testPhase
43,0,neutral_X0,x,a,False,979,3,11226,testPhase
0,0,neutral_A0,a,b,False,4551,3,11229,trainPhase
1,0,neutral_B3,b,a,False,2460,3,11229,trainPhase
2,0,neutral_B2,b,b,True,1577,3,11229,trainPhase
3,0,neutral_A1,a,a,True,1061,3,11229,trainPhase
4,0,neutral_B0,b,b,True,1339,3,11229,trainPhase
5,0,neutral_A3,a,b,False,2077,3,11229,trainPhase
6,0,neutral_A2,a,b,False,1323,3,11229,trainPhase
7,0,neutral_B1,b,b,True,1397,3,11229,trainPhase
0,1,neutral_B0,b,b,True,1184,3,11229,trainPhase
1,1,neutral_A2,a,a,True,1506,3,11229,trainPhase
2,1,neutral_B1,b,b,True,899,3,11229,trainPhase
3,1,neutral_B3,b,b,True,1344,3,11229,trainPhase
4,1,neutral_A0,a,a,True,1295,3,11229,trainPhase
5,1,neutral_A1,a,a,True,1333,3,11229,trainPhase
6,1,neutral_A3,a,a,True,1402,3,11229,trainPhase
7,1,neutral_B2,b,b,True,1258,3,11229,trainPhase
0,2,neutral_A3,a,a,True,1542,3,11229,trainPhase
1,2,neutral_A1,a,a,True,1351,3,11229,trainPhase
2,2,neutral_B0,b,b,True,1337,3,11229,trainPhase
3,2,neutral_A0,a,a,True,1023,3,11229,trainPhase
4,2,neutral_B2,b,b,True,2311,3,11229,trainPhase
5,2,neutral_B1,b,b,True,1593,3,11229,trainPhase
0,0,neutral_X6,x,a,False,1897,3,11229,subTestPhase
1,0,neutral_X7,x,a,False,1330,3,11229,subTestPhase
2,0,neutral_X1,x,a,False,1129,3,11229,subTestPhase
3,0,neutral_B0,b,b,True,954,3,11229,subTestPhase
4,0,neutral_X4,x,a,False,862,3,11229,subTestPhase
5,0,neutral_A1,a,a,True,1136,3,11229,subTestPhase
6,0,neutral_B1,b,b,True,1007,3,11229,subTestPhase
7,0,neutral_X0,x,a,False,1251,3,11229,subTestPhase
8,0,neutral_X8,x,a,False,943,3,11229,subTestPhase
9,0,neutral_X5,x,a,False,776,3,11229,subTestPhase
10,0,neutral_B3,b,b,True,1249,3,11229,subTestPhase
11,0,neutral_A3,a,a,True,1411,3,11229,subTestPhase
12,0,neutral_B2,b,b,True,1050,3,11229,subTestPhase
13,0,neutral_A2,a,a,True,960,3,11229,subTestPhase
14,0,neutral_A0,a,a,True,1127,3,11229,subTestPhase
15,0,neutral_X3,x,a,False,938,3,11229,subTestPhase
16,0,neutral_X2,x,a,False,1236,3,11229,subTestPhase
0,0,neutral_X1,x,a,False,1156,3,11229,testPhase
1,0,neutral_W6,w,b,False,938,3,11229,testPhase
2,0,neutral_X5,x,a,False,867,3,11229,testPhase
3,0,neutral_W4,w,b,False,889,3,11229,testPhase
4,0,neutral_X0,x,a,False,1269,3,11229,testPhase
5,0,neutral_Z1,z,a,False,995,3,11229,testPhase
6,0,neutral_Z8,z,a,False,794,3,11229,testPhase
7,0,neutral_X2,x,a,False,730,3,11229,testPhase
8,0,neutral_X3,x,a,False,705,3,11229,testPhase
9,0,neutral_B1,b,b,True,1128,3,11229,testPhase
10,0,neutral_Y4,y,b,False,1042,3,11229,testPhase
11,0,neutral_Y6,y,b,False,767,3,11229,testPhase
12,0,neutral_Z0,z,a,False,1821,3,11229,testPhase
13,0,neutral_Z7,z,a,False,795,3,11229,testPhase
14,0,neutral_Z3,z,a,False,1254,3,11229,testPhase
15,0,neutral_Y8,y,b,False,972,3,11229,testPhase
16,0,neutral_W0,w,b,False,823,3,11229,testPhase
17,0,neutral_W8,w,a,False,884,3,11229,testPhase
18,0,neutral_W1,w,a,False,954,3,11229,testPhase
19,0,neutral_W5,w,a,False,744,3,11229,testPhase
20,0,neutral_X8,x,a,False,952,3,11229,testPhase
21,0,neutral_B3,b,b,True,1333,3,11229,testPhase
22,0,neutral_Y1,y,b,False,1172,3,11229,testPhase
23,0,neutral_Z6,z,a,False,1162,3,11229,testPhase
24,0,neutral_Y0,y,b,False,1044,3,11229,testPhase
25,0,neutral_Z2,z,a,False,1287,3,11229,testPhase
26,0,neutral_A3,a,a,True,784,3,11229,testPhase
27,0,neutral_W2,w,a,False,1748,3,11229,testPhase
28,0,neutral_A2,a,a,True,957,3,11229,testPhase
29,0,neutral_X7,x,a,False,723,3,11229,testPhase
30,0,neutral_B0,b,b,True,1173,3,11229,testPhase
31,0,neutral_Z4,z,a,False,1047,3,11229,testPhase
32,0,neutral_Y3,y,b,False,2003,3,11229,testPhase
33,0,neutral_X4,x,a,False,991,3,11229,testPhase
34,0,neutral_A0,a,a,True,1504,3,11229,testPhase
35,0,neutral_Y2,y,b,False,1053,3,11229,testPhase
36,0,neutral_X6,x,a,False,1052,3,11229,testPhase
37,0,neutral_Z5,z,a,False,845,3,11229,testPhase
38,0,neutral_B2,b,a,False,744,3,11229,testPhase
39,0,neutral_W7,w,a,False,1727,3,11229,testPhase
40,0,neutral_Y5,y,b,False,1053,3,11229,testPhase
41,0,neutral_A1,a,a,True,1221,3,11229,testPhase
42,0,neutral_Y7,y,b,False,1340,3,11229,testPhase
43,0,neutral_W3,w,a,False,1329,3,11229,testPhase
0,0,neutral_B1,b,b,True,3708,3,11230,trainPhase
1,0,neutral_B0,b,b,True,1002,3,11230,trainPhase
2,0,neutral_B2,b,b,True,1029,3,11230,trainPhase
3,0,neutral_A2,a,b,False,1061,3,11230,trainPhase
4,0,neutral_B3,b,b,True,1094,3,11230,trainPhase
5,0,neutral_A0,a,b,False,1720,3,11230,trainPhase
6,0,neutral_A1,a,a,True,1832,3,11230,trainPhase
7,0,neutral_A3,a,a,True,3621,3,11230,trainPhase
0,1,neutral_B2,b,b,True,1782,3,11230,trainPhase
1,1,neutral_A3,a,a,True,2041,3,11230,trainPhase
2,1,neutral_B1,b,b,True,1460,3,11230,trainPhase
3,1,neutral_A1,a,b,False,1412,3,11230,trainPhase
4,1,neutral_B0,b,b,True,1798,3,11230,trainPhase
5,1,neutral_A0,a,a,True,1002,3,11230,trainPhase
6,1,neutral_A2,a,a,True,2917,3,11230,trainPhase
7,1,neutral_B3,b,b,True,3290,3,11230,trainPhase
0,2,neutral_A3,a,a,True,2085,3,11230,trainPhase
1,2,neutral_A0,a,a,True,1002,3,11230,trainPhase
2,2,neutral_B3,b,b,True,1232,3,11230,trainPhase
3,2,neutral_B2,b,b,True,857,3,11230,trainPhase
4,2,neutral_A2,a,a,True,1585,3,11230,trainPhase
5,2,neutral_A1,a,a,True,1316,3,11230,trainPhase
6,2,neutral_B0,b,b,True,1007,3,11230,trainPhase
7,2,neutral_B1,b,b,True,744,3,11230,trainPhase
0,3,neutral_B0,b,b,True,732,3,11230,trainPhase
1,3,neutral_A2,a,a,True,804,3,11230,trainPhase
2,3,neutral_A1,a,a,True,916,3,11230,trainPhase
0,0,neutral_X5,x,a,False,1337,3,11230,subTestPhase
1,0,neutral_A0,a,a,True,766,3,11230,subTestPhase
2,0,neutral_X6,x,a,False,2600,3,11230,subTestPhase
3,0,neutral_B0,b,b,True,1481,3,11230,subTestPhase
4,0,neutral_B2,b,b,True,872,3,11230,subTestPhase
5,0,neutral_X0,x,a,False,912,3,11230,subTestPhase
6,0,neutral_X1,x,a,False,683,3,11230,subTestPhase
7,0,neutral_X8,x,a,False,614,3,11230,subTestPhase
8,0,neutral_B1,b,b,True,1705,3,11230,subTestPhase
9,0,neutral_X4,x,a,False,908,3,11230,subTestPhase
10,0,neutral_X2,x,a,False,629,3,11230,subTestPhase
11,0,neutral_B3,b,b,True,904,3,11230,subTestPhase
12,0,neutral_A2,a,a,True,2056,3,11230,subTestPhase
13,0,neutral_X7,x,a,False,1006,3,11230,subTestPhase
14,0,neutral_A3,a,a,True,1599,3,11230,subTestPhase
15,0,neutral_X3,x,a,False,1009,3,11230,subTestPhase
16,0,neutral_A1,a,a,True,1437,3,11230,subTestPhase
0,0,neutral_X7,x,a,False,1018,3,11230,testPhase
1,0,neutral_B0,b,b,True,1248,3,11230,testPhase
2,0,neutral_Z4,z,a,False,3086,3,11230,testPhase
3,0,neutral_W8,w,a,False,2455,3,11230,testPhase
4,0,neutral_W7,w,a,False,1256,3,11230,testPhase
5,0,neutral_Y7,y,b,False,1758,3,11230,testPhase
6,0,neutral_W3,w,a,False,1878,3,11230,testPhase
7,0,neutral_W2,w,a,False,6500,3,11230,testPhase
8,0,neutral_B3,b,a,False,4108,3,11230,testPhase
9,0,neutral_X4,x,a,False,1256,3,11230,testPhase
10,0,neutral_W5,w,a,False,1660,3,11230,testPhase
11,0,neutral_Z7,z,a,False,3464,3,11230,testPhase
12,0,neutral_W0,w,a,False,1055,3,11230,testPhase
13,0,neutral_Z5,z,a,False,1009,3,11230,testPhase
14,0,neutral_Z8,z,a,False,750,3,11230,testPhase
15,0,neutral_Z3,z,a,False,1134,3,11230,testPhase
16,0,neutral_B2,b,b,True,4367,3,11230,testPhase
17,0,neutral_Y1,y,b,False,933,3,11230,testPhase
18,0,neutral_B1,b,b,True,991,3,11230,testPhase
19,0,neutral_X2,x,a,False,935,3,11230,testPhase
20,0,neutral_Y4,y,b,False,1505,3,11230,testPhase
21,0,neutral_Z2,z,a,False,2970,3,11230,testPhase
22,0,neutral_X1,x,a,False,1355,3,11230,testPhase
23,0,neutral_W4,w,a,False,1150,3,11230,testPhase
24,0,neutral_Y5,y,b,False,3182,3,11230,testPhase
25,0,neutral_Y0,y,b,False,655,3,11230,testPhase
26,0,neutral_X6,x,a,False,695,3,11230,testPhase
27,0,neutral_A0,a,a,True,643,3,11230,testPhase
28,0,neutral_W6,w,a,False,621,3,11230,testPhase
29,0,neutral_A1,a,a,True,694,3,11230,testPhase
30,0,neutral_Y6,y,b,False,1147,3,11230,testPhase
31,0,neutral_X5,x,a,False,800,3,11230,testPhase
32,0,neutral_Z6,z,a,False,3101,3,11230,testPhase
33,0,neutral_Y3,y,b,False,5595,3,11230,testPhase
34,0,neutral_X3,x,a,False,817,3,11230,testPhase
35,0,neutral_X0,x,a,False,618,3,11230,testPhase
36,0,neutral_A3,a,a,True,981,3,11230,testPhase
37,0,neutral_X8,x,a,False,1698,3,11230,testPhase
38,0,neutral_Y2,y,b,False,733,3,11230,testPhase
39,0,neutral_W1,w,a,False,1138,3,11230,testPhase
40,0,neutral_Z0,z,a,False,2429,3,11230,testPhase
41,0,neutral_Y8,y,b,False,1983,3,11230,testPhase
42,0,neutral_A2,a,a,True,1285,3,11230,testPhase
43,0,neutral_Z1,z,a,False,799,3,11230,testPhase
0,0,neutral_B3,b,a,False,2980,3,11232,trainPhase
1,0,neutral_B0,b,b,True,1898,3,11232,trainPhase
2,0,neutral_A3,a,b,False,1478,3,11232,trainPhase
3,0,neutral_B1,b,a,False,3475,3,11232,trainPhase
4,0,neutral_A0,a,b,False,3512,3,11232,trainPhase
5,0,neutral_A1,a,a,True,1470,3,11232,trainPhase
6,0,neutral_A2,a,b,False,1687,3,11232,trainPhase
7,0,neutral_B2,b,b,True,1721,3,11232,trainPhase
0,1,neutral_B3,b,a,False,1235,3,11232,trainPhase
1,1,neutral_A3,a,a,True,1698,3,11232,trainPhase
2,1,neutral_A1,a,b,False,1868,3,11232,trainPhase
3,1,neutral_A2,a,b,False,3145,3,11232,trainPhase
4,1,neutral_B0,b,b,True,2931,3,11232,trainPhase
5,1,neutral_B2,b,b,True,1570,3,11232,trainPhase
6,1,neutral_B1,b,a,False,2588,3,11232,trainPhase
7,1,neutral_A0,a,b,False,1903,3,11232,trainPhase
0,2,neutral_B2,b,b,True,1030,3,11232,trainPhase
1,2,neutral_B1,b,b,True,1462,3,11232,trainPhase
2,2,neutral_B3,b,b,True,1552,3,11232,trainPhase
3,2,neutral_A3,a,a,True,1130,3,11232,trainPhase
4,2,neutral_A0,a,a,True,1212,3,11232,trainPhase
5,2,neutral_B0,b,b,True,1239,3,11232,trainPhase
6,2,neutral_A1,a,a,True,1205,3,11232,trainPhase
7,2,neutral_A2,a,a,True,929,3,11232,trainPhase
0,3,neutral_B2,b,b,True,1490,3,11232,trainPhase
1,3,neutral_B3,b,b,True,1893,3,11232,trainPhase
2,3,neutral_A1,a,a,True,1029,3,11232,trainPhase
3,3,neutral_A2,a,a,True,1570,3,11232,trainPhase
4,3,neutral_B0,b,b,True,2942,3,11232,trainPhase
5,3,neutral_A0,a,a,True,4453,3,11232,trainPhase
6,3,neutral_A3,a,a,True,1327,3,11232,trainPhase
0,0,neutral_X1,x,a,False,1166,3,11232,subTestPhase
1,0,neutral_A3,a,b,False,2997,3,11232,subTestPhase
2,0,neutral_X3,x,a,False,2504,3,11232,subTestPhase
3,0,neutral_A2,a,b,False,1170,3,11232,subTestPhase
4,0,neutral_X8,x,a,False,1913,3,11232,subTestPhase
5,0,neutral_X0,x,b,False,1767,3,11232,subTestPhase
6,0,neutral_A0,a,a,True,2086,3,11232,subTestPhase
7,0,neutral_A1,a,a,True,1876,3,11232,subTestPhase
8,0,neutral_B2,b,b,True,1031,3,11232,subTestPhase
9,0,neutral_X7,x,a,False,909,3,11232,subTestPhase
10,0,neutral_X2,x,a,False,846,3,11232,subTestPhase
11,0,neutral_B0,b,b,True,1300,3,11232,subTestPhase
12,0,neutral_B3,b,b,True,1176,3,11232,subTestPhase
13,0,neutral_X4,x,a,False,996,3,11232,subTestPhase
14,0,neutral_B1,b,b,True,1301,3,11232,subTestPhase
15,0,neutral_X6,x,a,False,1306,3,11232,subTestPhase
16,0,neutral_X5,x,a,False,949,3,11232,subTestPhase
0,0,neutral_B2,b,b,True,1015,3,11232,testPhase
1,0,neutral_W0,w,a,False,1122,3,11232,testPhase
2,0,neutral_Y3,y,b,False,1709,3,11232,testPhase
3,0,neutral_Z5,z,b,False,1769,3,11232,testPhase
4,0,neutral_A0,a,a,True,3637,3,11232,testPhase
5,0,neutral_W1,w,a,False,1709,3,11232,testPhase
6,0,neutral_Z8,z,b,False,9127,3,11232,testPhase
7,0,neutral_W7,w,a,False,1103,3,11232,testPhase
8,0,neutral_W6,w,a,False,959,3,11232,testPhase
9,0,neutral_Z3,z,b,False,1687,3,11232,testPhase
10,0,neutral_Y7,y,b,False,6966,3,11232,testPhase
11,0,neutral_X3,x,a,False,1415,3,11232,testPhase
12,0,neutral_Y5,y,b,False,954,3,11232,testPhase
13,0,neutral_X1,x,a,False,814,3,11232,testPhase
14,0,neutral_Z2,z,a,False,997,3,11232,testPhase
15,0,neutral_Z1,z,a,False,967,3,11232,testPhase
16,0,neutral_X0,x,a,False,1005,3,11232,testPhase
17,0,neutral_Z4,z,a,False,966,3,11232,testPhase
18,0,neutral_X4,x,a,False,886,3,11232,testPhase
19,0,neutral_Y0,y,b,False,990,3,11232,testPhase
20,0,neutral_X8,x,a,False,1997,3,11232,testPhase
21,0,neutral_W5,w,a,False,1534,3,11232,testPhase
22,0,neutral_B3,b,b,True,2153,3,11232,testPhase
23,0,neutral_W8,w,a,False,862,3,11232,testPhase
24,0,neutral_X5,x,a,False,844,3,11232,testPhase
25,0,neutral_Y4,y,b,False,972,3,11232,testPhase
26,0,neutral_B0,b,a,False,1855,3,11232,testPhase
27,0,neutral_X7,x,a,False,873,3,11232,testPhase
28,0,neutral_X6,x,a,False,767,3,11232,testPhase
29,0,neutral_Y1,y,b,False,897,3,11232,testPhase
30,0,neutral_Y2,y,b,False,638,3,11232,testPhase
31,0,neutral_Z0,z,b,False,894,3,11232,testPhase
32,0,neutral_Y6,y,b,False,942,3,11232,testPhase
33,0,neutral_W4,w,a,False,1474,3,11232,testPhase
34,0,neutral_Z7,z,b,False,2974,3,11232,testPhase
35,0,neutral_X2,x,a,False,715,3,11232,testPhase
36,0,neutral_A1,a,a,True,532,3,11232,testPhase
37,0,neutral_A2,a,a,True,668,3,11232,testPhase
38,0,neutral_A3,a,a,True,717,3,11232,testPhase
39,0,neutral_B1,b,b,True,1998,3,11232,testPhase
40,0,neutral_Z6,z,a,False,734,3,11232,testPhase
41,0,neutral_W3,w,a,False,637,3,11232,testPhase
42,0,neutral_Y8,y,b,False,968,3,11232,testPhase
43,0,neutral_W2,w,a,False,1314,3,11232,testPhase
0,0,neutral_A1,a,a,True,3255,3,11234,trainPhase
1,0,neutral_B1,b,b,True,1225,3,11234,trainPhase
2,0,neutral_B0,b,b,True,1296,3,11234,trainPhase
3,0,neutral_B3,b,b,True,1444,3,11234,trainPhase
4,0,neutral_A3,a,b,False,1742,3,11234,trainPhase
5,0,neutral_A2,a,a,True,1468,3,11234,trainPhase
6,0,neutral_B2,b,a,False,1661,3,11234,trainPhase
7,0,neutral_A0,a,b,False,1509,3,11234,trainPhase
0,1,neutral_B2,b,a,False,3050,3,11234,trainPhase
1,1,neutral_A1,a,a,True,1445,3,11234,trainPhase
2,1,neutral_A2,a,b,False,1625,3,11234,trainPhase
3,1,neutral_A0,a,a,True,1091,3,11234,trainPhase
4,1,neutral_B1,b,b,True,1616,3,11234,trainPhase
5,1,neutral_A3,a,b,False,3545,3,11234,trainPhase
6,1,neutral_B3,b,a,False,2201,3,11234,trainPhase
7,1,neutral_B0,b,b,True,3864,3,11234,trainPhase
0,2,neutral_B0,b,b,True,1063,3,11234,trainPhase
1,2,neutral_B3,b,a,False,1298,3,11234,trainPhase
2,2,neutral_A1,a,a,True,1077,3,11234,trainPhase
3,2,neutral_B2,b,b,True,1086,3,11234,trainPhase
4,2,neutral_A3,a,b,False,826,3,11234,trainPhase
5,2,neutral_B1,b,b,True,1822,3,11234,trainPhase
6,2,neutral_A0,a,a,True,822,3,11234,trainPhase
7,2,neutral_A2,a,a,True,1349,3,11234,trainPhase
0,3,neutral_A2,a,a,True,780,3,11234,trainPhase
1,3,neutral_B3,b,b,True,1149,3,11234,trainPhase
2,3,neutral_B1,b,b,True,1107,3,11234,trainPhase
3,3,neutral_A0,a,a,True,1204,3,11234,trainPhase
4,3,neutral_A3,a,a,True,1515,3,11234,trainPhase
5,3,neutral_B2,b,b,True,1058,3,11234,trainPhase
6,3,neutral_B0,b,b,True,941,3,11234,trainPhase
7,3,neutral_A1,a,a,True,817,3,11234,trainPhase
0,4,neutral_B1,b,b,True,813,3,11234,trainPhase
1,4,neutral_A0,a,a,True,854,3,11234,trainPhase
2,4,neutral_B2,b,b,True,2334,3,11234,trainPhase
3,4,neutral_B3,b,b,True,1885,3,11234,trainPhase
0,0,neutral_X5,x,a,False,1243,3,11234,subTestPhase
1,0,neutral_X3,x,a,False,990,3,11234,subTestPhase
2,0,neutral_X4,x,a,False,1190,3,11234,subTestPhase
3,0,neutral_X0,x,a,False,1087,3,11234,subTestPhase
4,0,neutral_B1,b,b,True,917,3,11234,subTestPhase
5,0,neutral_A3,a,a,True,886,3,11234,subTestPhase
6,0,neutral_B3,b,b,True,720,3,11234,subTestPhase
7,0,neutral_X7,x,a,False,837,3,11234,subTestPhase
8,0,neutral_B2,b,b,True,621,3,11234,subTestPhase
9,0,neutral_X8,x,a,False,862,3,11234,subTestPhase
10,0,neutral_A1,a,a,True,1017,3,11234,subTestPhase
11,0,neutral_A0,a,a,True,879,3,11234,subTestPhase
12,0,neutral_B0,b,b,True,925,3,11234,subTestPhase
13,0,neutral_X6,x,a,False,969,3,11234,subTestPhase
14,0,neutral_X2,x,a,False,700,3,11234,subTestPhase
15,0,neutral_A2,a,a,True,1149,3,11234,subTestPhase
16,0,neutral_X1,x,a,False,4688,3,11234,subTestPhase
0,0,neutral_Z8,z,a,False,5077,3,11234,testPhase
1,0,neutral_Z1,z,a,False,1426,3,11234,testPhase
2,0,neutral_W7,w,b,False,985,3,11234,testPhase
3,0,neutral_W4,w,a,False,920,3,11234,testPhase
4,0,neutral_X0,x,a,False,527,3,11234,testPhase
5,0,neutral_W6,w,a,False,1462,3,11234,testPhase
6,0,neutral_Y7,y,b,False,1189,3,11234,testPhase
7,0,neutral_Z5,z,a,False,1070,3,11234,testPhase
8,0,neutral_B0,b,b,True,1023,3,11234,testPhase
9,0,neutral_A3,a,a,True,782,3,11234,testPhase
10,0,neutral_X4,x,a,False,1013,3,11234,testPhase
11,0,neutral_Y5,y,b,False,1125,3,11234,testPhase
12,0,neutral_Z0,z,a,False,801,3,11234,testPhase
13,0,neutral_W3,w,b,False,661,3,11234,testPhase
14,0,neutral_B2,b,a,False,518,3,11234,testPhase
15,0,neutral_X2,x,a,False,517,3,11234,testPhase
16,0,neutral_Z7,z,a,False,541,3,11234,testPhase
17,0,neutral_A2,a,a,True,494,3,11234,testPhase
18,0,neutral_Z3,z,a,False,469,3,11234,testPhase
19,0,neutral_Z2,z,a,False,1469,3,11234,testPhase
20,0,neutral_W0,w,a,False,1045,3,11234,testPhase
21,0,neutral_X1,x,a,False,590,3,11234,testPhase
22,0,neutral_W2,w,a,False,429,3,11234,testPhase
23,0,neutral_X5,x,a,False,365,3,11234,testPhase
24,0,neutral_Y4,y,b,False,1653,3,11234,testPhase
25,0,neutral_X7,x,a,False,822,3,11234,testPhase
26,0,neutral_Y8,y,b,False,1008,3,11234,testPhase
27,0,neutral_Y3,y,b,False,822,3,11234,testPhase
28,0,neutral_X8,x,a,False,893,3,11234,testPhase
29,0,neutral_A1,a,a,True,998,3,11234,testPhase
30,0,neutral_A0,a,a,True,770,3,11234,testPhase
31,0,neutral_X3,x,a,False,568,3,11234,testPhase
32,0,neutral_Y6,y,b,False,895,3,11234,testPhase
33,0,neutral_W8,w,a,False,1469,3,11234,testPhase
34,0,neutral_B1,b,a,False,1118,3,11234,testPhase
35,0,neutral_Y1,y,b,False,1026,3,11234,testPhase
36,0,neutral_B3,b,a,False,749,3,11234,testPhase
37,0,neutral_Y2,y,b,False,637,3,11234,testPhase
38,0,neutral_W5,w,a,False,476,3,11234,testPhase
39,0,neutral_Z6,z,a,False,941,3,11234,testPhase
40,0,neutral_W1,w,a,False,413,3,11234,testPhase
41,0,neutral_Y0,y,b,False,773,3,11234,testPhase
42,0,neutral_X6,x,a,False,573,3,11234,testPhase
43,0,neutral_Z4,z,a,False,1031,3,11234,testPhase
0,0,neutral_A1,a,b,False,2579,3,11236,trainPhase
1,0,neutral_A3,a,a,True,2026,3,11236,trainPhase
2,0,neutral_B1,b,a,False,1554,3,11236,trainPhase
3,0,neutral_B2,b,a,False,1680,3,11236,trainPhase
4,0,neutral_A0,a,b,False,1616,3,11236,trainPhase
5,0,neutral_B0,b,b,True,1177,3,11236,trainPhase
6,0,neutral_A2,a,b,False,1508,3,11236,trainPhase
7,0,neutral_B3,b,b,True,3485,3,11236,trainPhase
0,1,neutral_A0,a,a,True,2350,3,11236,trainPhase
1,1,neutral_B3,b,b,True,2118,3,11236,trainPhase
2,1,neutral_B1,b,a,False,3349,3,11236,trainPhase
3,1,neutral_A2,a,a,True,2858,3,11236,trainPhase
4,1,neutral_A3,a,a,True,1680,3,11236,trainPhase
5,1,neutral_A1,a,a,True,1929,3,11236,trainPhase
6,1,neutral_B2,b,b,True,2185,3,11236,trainPhase
7,1,neutral_B0,b,b,True,2269,3,11236,trainPhase
0,2,neutral_B2,b,b,True,1789,3,11236,trainPhase
1,2,neutral_A2,a,a,True,1418,3,11236,trainPhase
2,2,neutral_A0,a,a,True,2456,3,11236,trainPhase
3,2,neutral_B0,b,b,True,1065,3,11236,trainPhase
4,2,neutral_A3,a,a,True,1385,3,11236,trainPhase
5,2,neutral_B1,b,b,True,1222,3,11236,trainPhase
6,2,neutral_B3,b,b,True,1542,3,11236,trainPhase
7,2,neutral_A1,a,a,True,1664,3,11236,trainPhase
0,3,neutral_A0,a,a,True,1503,3,11236,trainPhase
1,3,neutral_A2,a,a,True,1310,3,11236,trainPhase
0,0,neutral_B3,b,b,True,3827,3,11236,subTestPhase
1,0,neutral_B2,b,b,True,1282,3,11236,subTestPhase
2,0,neutral_A3,a,a,True,1024,3,11236,subTestPhase
3,0,neutral_X3,x,a,False,1109,3,11236,subTestPhase
4,0,neutral_A2,a,a,True,2308,3,11236,subTestPhase
5,0,neutral_X5,x,a,False,1063,3,11236,subTestPhase
6,0,neutral_A0,a,a,True,2345,3,11236,subTestPhase
7,0,neutral_X8,x,a,False,997,3,11236,subTestPhase
8,0,neutral_B0,b,b,True,838,3,11236,subTestPhase
9,0,neutral_B1,b,b,True,782,3,11236,subTestPhase
10,0,neutral_X1,x,a,False,1026,3,11236,subTestPhase
11,0,neutral_X6,x,a,False,1115,3,11236,subTestPhase
12,0,neutral_X2,x,a,False,1346,3,11236,subTestPhase
13,0,neutral_A1,a,a,True,1454,3,11236,subTestPhase
14,0,neutral_X0,x,a,False,1417,3,11236,subTestPhase
15,0,neutral_X4,x,a,False,958,3,11236,subTestPhase
16,0,neutral_X7,x,a,False,1204,3,11236,subTestPhase
0,0,neutral_Z4,z,a,False,1687,3,11236,testPhase
1,0,neutral_A2,a,a,True,1421,3,11236,testPhase
2,0,neutral_W5,w,a,False,3583,3,11236,testPhase
3,0,neutral_W3,w,a,False,902,3,11236,testPhase
4,0,neutral_B0,b,b,True,857,3,11236,testPhase
5,0,neutral_W4,w,a,False,1405,3,11236,testPhase
6,0,neutral_Z6,z,a,False,904,3,11236,testPhase
7,0,neutral_X2,x,a,False,1264,3,11236,testPhase
8,0,neutral_X0,x,a,False,1802,3,11236,testPhase
9,0,neutral_Z8,z,a,False,975,3,11236,testPhase
10,0,neutral_Z2,z,a,False,1727,3,11236,testPhase
11,0,neutral_W1,w,a,False,1390,3,11236,testPhase
12,0,neutral_Z3,z,a,False,1021,3,11236,testPhase
13,0,neutral_Z5,z,a,False,733,3,11236,testPhase
14,0,neutral_Y2,y,b,False,1631,3,11236,testPhase
15,0,neutral_Y7,y,b,False,806,3,11236,testPhase
16,0,neutral_B2,b,b,True,3175,3,11236,testPhase
17,0,neutral_A0,a,a,True,1359,3,11236,testPhase
18,0,neutral_W6,w,a,False,2080,3,11236,testPhase
19,0,neutral_W2,w,b,False,3182,3,11236,testPhase
20,0,neutral_B1,b,b,True,1149,3,11236,testPhase
21,0,neutral_Y1,y,b,False,1149,3,11236,testPhase
22,0,neutral_Y5,y,b,False,805,3,11236,testPhase
23,0,neutral_X3,x,a,False,917,3,11236,testPhase
24,0,neutral_W8,w,a,False,2797,3,11236,testPhase
25,0,neutral_Y3,y,b,False,1346,3,11236,testPhase
26,0,neutral_A3,a,a,True,1470,3,11236,testPhase
27,0,neutral_W0,w,b,False,2614,3,11236,testPhase
28,0,neutral_Y4,y,b,False,1021,3,11236,testPhase
29,0,neutral_Y6,y,b,False,630,3,11236,testPhase
30,0,neutral_W7,w,a,False,1382,3,11236,testPhase
31,0,neutral_Y0,y,b,False,998,3,11236,testPhase
32,0,neutral_X7,x,a,False,1398,3,11236,testPhase
33,0,neutral_X6,x,a,False,859,3,11236,testPhase
34,0,neutral_Z7,z,a,False,1055,3,11236,testPhase
35,0,neutral_Z0,z,a,False,763,3,11236,testPhase
36,0,neutral_Z1,z,a,False,1117,3,11236,testPhase
37,0,neutral_X5,x,a,False,973,3,11236,testPhase
38,0,neutral_X4,x,a,False,2616,3,11236,testPhase
39,0,neutral_B3,b,a,False,1439,3,11236,testPhase
40,0,neutral_X8,x,a,False,1040,3,11236,testPhase
41,0,neutral_Y8,y,b,False,1063,3,11236,testPhase
42,0,neutral_X1,x,a,False,1481,3,11236,testPhase
43,0,neutral_A1,a,a,True,1323,3,11236,testPhase
0,0,neutral_A1,a,a,True,3336,3,11237,trainPhase
1,0,neutral_A3,a,b,False,4974,3,11237,trainPhase
2,0,neutral_A2,a,a,True,1684,3,11237,trainPhase
3,0,neutral_B1,b,a,False,1551,3,11237,trainPhase
4,0,neutral_B0,b,b,True,1974,3,11237,trainPhase
5,0,neutral_B3,b,b,True,1756,3,11237,trainPhase
6,0,neutral_A0,a,b,False,1819,3,11237,trainPhase
7,0,neutral_B2,b,b,True,1597,3,11237,trainPhase
0,1,neutral_A1,a,a,True,1488,3,11237,trainPhase
1,1,neutral_B1,b,b,True,1962,3,11237,trainPhase
2,1,neutral_A2,a,a,True,1608,3,11237,trainPhase
3,1,neutral_A3,a,a,True,1581,3,11237,trainPhase
4,1,neutral_B2,b,b,True,1533,3,11237,trainPhase
5,1,neutral_B0,b,b,True,896,3,11237,trainPhase
6,1,neutral_A0,a,b,False,901,3,11237,trainPhase
7,1,neutral_B3,b,b,True,1350,3,11237,trainPhase
0,2,neutral_A2,a,a,True,1592,3,11237,trainPhase
1,2,neutral_B2,b,b,True,939,3,11237,trainPhase
2,2,neutral_B0,b,b,True,1110,3,11237,trainPhase
3,2,neutral_A0,a,a,True,785,3,11237,trainPhase
4,2,neutral_B1,b,b,True,1032,3,11237,trainPhase
5,2,neutral_B3,b,a,False,1939,3,11237,trainPhase
6,2,neutral_A1,a,a,True,1047,3,11237,trainPhase
7,2,neutral_A3,a,a,True,1213,3,11237,trainPhase
0,3,neutral_B1,b,b,True,1032,3,11237,trainPhase
1,3,neutral_A1,a,a,True,1562,3,11237,trainPhase
2,3,neutral_A2,a,b,False,2591,3,11237,trainPhase
3,3,neutral_A3,a,a,True,1021,3,11237,trainPhase
4,3,neutral_B3,b,b,True,1910,3,11237,trainPhase
5,3,neutral_B0,b,b,True,949,3,11237,trainPhase
6,3,neutral_B2,b,b,True,987,3,11237,trainPhase
7,3,neutral_A0,a,a,True,1110,3,11237,trainPhase
0,4,neutral_B3,b,b,True,2204,3,11237,trainPhase
1,4,neutral_A1,a,a,True,1893,3,11237,trainPhase
2,4,neutral_A3,a,b,False,3861,3,11237,trainPhase
3,4,neutral_B2,b,a,False,854,3,11237,trainPhase
4,4,neutral_A2,a,b,False,1608,3,11237,trainPhase
5,4,neutral_B0,b,b,True,1541,3,11237,trainPhase
6,4,neutral_A0,a,a,True,845,3,11237,trainPhase
7,4,neutral_B1,b,b,True,1762,3,11237,trainPhase
0,5,neutral_B2,b,b,True,885,3,11237,trainPhase
1,5,neutral_B0,b,b,True,981,3,11237,trainPhase
2,5,neutral_B1,b,b,True,1198,3,11237,trainPhase
3,5,neutral_B3,b,b,True,727,3,11237,trainPhase
4,5,neutral_A0,a,a,True,1370,3,11237,trainPhase
5,5,neutral_A1,a,a,True,1230,3,11237,trainPhase
6,5,neutral_A2,a,a,True,1744,3,11237,trainPhase
7,5,neutral_A3,a,a,True,755,3,11237,trainPhase
0,6,neutral_B0,b,b,True,1653,3,11237,trainPhase
1,6,neutral_B3,b,b,True,1707,3,11237,trainPhase
2,6,neutral_B1,b,b,True,799,3,11237,trainPhase
3,6,neutral_B2,b,b,True,1046,3,11237,trainPhase
0,0,neutral_X3,x,a,False,4076,3,11237,subTestPhase
1,0,neutral_B0,b,b,True,1229,3,11237,subTestPhase
2,0,neutral_X4,x,a,False,1127,3,11237,subTestPhase
3,0,neutral_X0,x,a,False,1251,3,11237,subTestPhase
4,0,neutral_B1,b,b,True,989,3,11237,subTestPhase
5,0,neutral_A2,a,a,True,9815,3,11237,subTestPhase
6,0,neutral_X5,x,a,False,877,3,11237,subTestPhase
7,0,neutral_A3,a,a,True,1107,3,11237,subTestPhase
8,0,neutral_A0,a,a,True,841,3,11237,subTestPhase
9,0,neutral_X8,x,a,False,795,3,11237,subTestPhase
10,0,neutral_X7,x,a,False,930,3,11237,subTestPhase
11,0,neutral_X1,x,a,False,991,3,11237,subTestPhase
12,0,neutral_X6,x,a,False,10338,3,11237,subTestPhase
13,0,neutral_B3,b,b,True,4118,3,11237,subTestPhase
14,0,neutral_A1,a,a,True,2925,3,11237,subTestPhase
15,0,neutral_X2,x,a,False,768,3,11237,subTestPhase
16,0,neutral_B2,b,b,True,1303,3,11237,subTestPhase
0,0,neutral_A0,a,a,True,1285,3,11237,testPhase
1,0,neutral_W3,w,a,False,1032,3,11237,testPhase
2,0,neutral_W1,w,b,False,3662,3,11237,testPhase
3,0,neutral_X0,x,a,False,1108,3,11237,testPhase
4,0,neutral_W2,w,b,False,748,3,11237,testPhase
5,0,neutral_W6,w,a,False,2675,3,11237,testPhase
6,0,neutral_X6,x,a,False,1470,3,11237,testPhase
7,0,neutral_Y2,y,b,False,2206,3,11237,testPhase
8,0,neutral_Z8,z,b,False,813,3,11237,testPhase
9,0,neutral_W8,w,a,False,3536,3,11237,testPhase
10,0,neutral_Y0,y,b,False,1529,3,11237,testPhase
11,0,neutral_Y7,y,b,False,908,3,11237,testPhase
12,0,neutral_B1,b,b,True,1242,3,11237,testPhase
13,0,neutral_X7,x,a,False,752,3,11237,testPhase
14,0,neutral_Z3,z,b,False,5482,3,11237,testPhase
15,0,neutral_Z6,z,a,False,899,3,11237,testPhase
16,0,neutral_Z2,z,a,False,886,3,11237,testPhase
17,0,neutral_W5,w,a,False,2301,3,11237,testPhase
18,0,neutral_Y5,y,b,False,695,3,11237,testPhase
19,0,neutral_B2,b,b,True,1718,3,11237,testPhase
20,0,neutral_Y8,y,b,False,985,3,11237,testPhase
21,0,neutral_Y4,y,b,False,775,3,11237,testPhase
22,0,neutral_X1,x,a,False,844,3,11237,testPhase
23,0,neutral_Y3,y,b,False,939,3,11237,testPhase
24,0,neutral_X2,x,a,False,1202,3,11237,testPhase
25,0,neutral_B0,b,b,True,1750,3,11237,testPhase
26,0,neutral_X4,x,a,False,944,3,11237,testPhase
27,0,neutral_X5,x,a,False,687,3,11237,testPhase
28,0,neutral_Z7,z,b,False,1126,3,11237,testPhase
29,0,neutral_Z5,z,a,False,2708,3,11237,testPhase
30,0,neutral_X3,x,a,False,859,3,11237,testPhase
31,0,neutral_W7,w,b,False,1009,3,11237,testPhase
32,0,neutral_Z0,z,a,False,1177,3,11237,testPhase
33,0,neutral_W4,w,a,False,1231,3,11237,testPhase
34,0,neutral_A2,a,a,True,911,3,11237,testPhase
35,0,neutral_W0,w,b,False,1479,3,11237,testPhase
36,0,neutral_B3,b,a,False,5074,3,11237,testPhase
37,0,neutral_Z4,z,a,False,1877,3,11237,testPhase
38,0,neutral_A1,a,a,True,1028,3,11237,testPhase
39,0,neutral_Z1,z,b,False,18834,3,11237,testPhase
40,0,neutral_Y1,y,b,False,1022,3,11237,testPhase
41,0,neutral_Y6,y,b,False,820,3,11237,testPhase
42,0,neutral_X8,x,a,False,920,3,11237,testPhase
43,0,neutral_A3,a,a,True,2830,3,11237,testPhase
0,0,neutral_B2,b,b,True,4016,3,11238,trainPhase
1,0,neutral_A0,a,b,False,2759,3,11238,trainPhase
2,0,neutral_B3,b,a,False,2811,3,11238,trainPhase
3,0,neutral_B1,b,b,True,2125,3,11238,trainPhase
4,0,neutral_A2,a,b,False,1746,3,11238,trainPhase
5,0,neutral_A3,a,a,True,1477,3,11238,trainPhase
6,0,neutral_B0,b,b,True,1784,3,11238,trainPhase
7,0,neutral_A1,a,a,True,1222,3,11238,trainPhase
0,1,neutral_B1,b,b,True,1064,3,11238,trainPhase
1,1,neutral_B3,b,b,True,1456,3,11238,trainPhase
2,1,neutral_A1,a,a,True,1538,3,11238,trainPhase
3,1,neutral_A2,a,a,True,1085,3,11238,trainPhase
4,1,neutral_A0,a,a,True,1235,3,11238,trainPhase
5,1,neutral_A3,a,b,False,2086,3,11238,trainPhase
6,1,neutral_B0,b,b,True,1241,3,11238,trainPhase
7,1,neutral_B2,b,b,True,1379,3,11238,trainPhase
0,2,neutral_A0,a,a,True,1077,3,11238,trainPhase
1,2,neutral_A2,a,a,True,1783,3,11238,trainPhase
2,2,neutral_A3,a,a,True,1001,3,11238,trainPhase
3,2,neutral_A1,a,a,True,1765,3,11238,trainPhase
4,2,neutral_B3,b,b,True,2414,3,11238,trainPhase
5,2,neutral_B1,b,b,True,1059,3,11238,trainPhase
6,2,neutral_B2,b,b,True,1037,3,11238,trainPhase
7,2,neutral_B0,b,b,True,809,3,11238,trainPhase
0,3,neutral_A3,a,a,True,1541,3,11238,trainPhase
1,3,neutral_A1,a,a,True,1029,3,11238,trainPhase
2,3,neutral_A2,a,a,True,907,3,11238,trainPhase
3,3,neutral_B3,b,b,True,1041,3,11238,trainPhase
4,3,neutral_B2,b,b,True,789,3,11238,trainPhase
0,0,neutral_A0,a,a,True,1841,3,11238,subTestPhase
1,0,neutral_X7,x,a,False,2656,3,11238,subTestPhase
2,0,neutral_A3,a,a,True,1414,3,11238,subTestPhase
3,0,neutral_X3,x,a,False,1469,3,11238,subTestPhase
4,0,neutral_X8,x,a,False,2054,3,11238,subTestPhase
5,0,neutral_B0,b,b,True,1925,3,11238,subTestPhase
6,0,neutral_X5,x,a,False,1002,3,11238,subTestPhase
7,0,neutral_B3,b,b,True,1509,3,11238,subTestPhase
8,0,neutral_B1,b,b,True,853,3,11238,subTestPhase
9,0,neutral_X1,x,a,False,1488,3,11238,subTestPhase
10,0,neutral_A2,a,a,True,1219,3,11238,subTestPhase
11,0,neutral_X6,x,a,False,1230,3,11238,subTestPhase
12,0,neutral_A1,a,a,True,1471,3,11238,subTestPhase
13,0,neutral_X4,x,a,False,1942,3,11238,subTestPhase
14,0,neutral_X2,x,a,False,676,3,11238,subTestPhase
15,0,neutral_B2,b,b,True,965,3,11238,subTestPhase
16,0,neutral_X0,x,a,False,3678,3,11238,subTestPhase
0,0,neutral_W6,w,b,False,5572,3,11238,testPhase
1,0,neutral_X0,x,a,False,2501,3,11238,testPhase
2,0,neutral_Y7,y,b,False,2025,3,11238,testPhase
3,0,neutral_Z1,z,a,False,9084,3,11238,testPhase
4,0,neutral_Z7,z,a,False,1406,3,11238,testPhase
5,0,neutral_W7,w,b,False,4367,3,11238,testPhase
6,0,neutral_Z4,z,a,False,2142,3,11238,testPhase
7,0,neutral_A3,a,a,True,997,3,11238,testPhase
8,0,neutral_Y0,y,b,False,4292,3,11238,testPhase
9,0,neutral_Z6,z,a,False,1118,3,11238,testPhase
10,0,neutral_B0,b,b,True,4027,3,11238,testPhase
11,0,neutral_Y1,y,b,False,1139,3,11238,testPhase
12,0,neutral_W0,w,b,False,1325,3,11238,testPhase
13,0,neutral_X8,x,a,False,1139,3,11238,testPhase
14,0,neutral_B2,b,b,True,1782,3,11238,testPhase
15,0,neutral_B3,b,b,True,3181,3,11238,testPhase
16,0,neutral_X3,x,a,False,2414,3,11238,testPhase
17,0,neutral_W4,w,b,False,3386,3,11238,testPhase
18,0,neutral_B1,b,b,True,852,3,11238,testPhase
19,0,neutral_Y2,y,b,False,965,3,11238,testPhase
20,0,neutral_X4,x,a,False,1176,3,11238,testPhase
21,0,neutral_A2,a,a,True,3413,3,11238,testPhase
22,0,neutral_X6,x,a,False,1913,3,11238,testPhase
23,0,neutral_Z2,z,a,False,3434,3,11238,testPhase
24,0,neutral_X7,x,a,False,1004,3,11238,testPhase
25,0,neutral_W3,w,b,False,1382,3,11238,testPhase
26,0,neutral_Y4,y,b,False,1502,3,11238,testPhase
27,0,neutral_Y5,y,b,False,830,3,11238,testPhase
28,0,neutral_Y8,y,b,False,805,3,11238,testPhase
29,0,neutral_W5,w,b,False,718,3,11238,testPhase
30,0,neutral_A0,a,a,True,2369,3,11238,testPhase
31,0,neutral_X1,x,a,False,1270,3,11238,testPhase
32,0,neutral_W2,w,b,False,2095,3,11238,testPhase
33,0,neutral_Z0,z,a,False,1981,3,11238,testPhase
34,0,neutral_Z8,z,a,False,1238,3,11238,testPhase
35,0,neutral_Y6,y,b,False,1518,3,11238,testPhase
36,0,neutral_A1,a,a,True,1371,3,11238,testPhase
37,0,neutral_W1,w,b,False,814,3,11238,testPhase
38,0,neutral_W8,w,a,False,2326,3,11238,testPhase
39,0,neutral_X2,x,a,False,1107,3,11238,testPhase
40,0,neutral_Z5,z,a,False,2893,3,11238,testPhase
41,0,neutral_Z3,z,a,False,1054,3,11238,testPhase
42,0,neutral_X5,x,a,False,1962,3,11238,testPhase
43,0,neutral_Y3,y,b,False,1196,3,11238,testPhase
0,0,neutral_A0,a,a,True,5894,3,11240,trainPhase
1,0,neutral_A2,a,a,True,1699,3,11240,trainPhase
2,0,neutral_B2,b,a,False,1668,3,11240,trainPhase
3,0,neutral_A3,a,b,False,2026,3,11240,trainPhase
4,0,neutral_A1,a,a,True,2623,3,11240,trainPhase
5,0,neutral_B0,b,b,True,2989,3,11240,trainPhase
6,0,neutral_B1,b,b,True,1549,3,11240,trainPhase
7,0,neutral_B3,b,b,True,1633,3,11240,trainPhase
0,1,neutral_B2,b,b,True,1255,3,11240,trainPhase
1,1,neutral_A1,a,a,True,1126,3,11240,trainPhase
2,1,neutral_A3,a,a,True,1774,3,11240,trainPhase
3,1,neutral_B1,b,b,True,1173,3,11240,trainPhase
4,1,neutral_B0,b,b,True,1554,3,11240,trainPhase
5,1,neutral_A2,a,a,True,1770,3,11240,trainPhase
6,1,neutral_A0,a,a,True,1222,3,11240,trainPhase
7,1,neutral_B3,b,b,True,1789,3,11240,trainPhase
0,2,neutral_B3,b,b,True,1284,3,11240,trainPhase
1,2,neutral_A1,a,a,True,1320,3,11240,trainPhase
2,2,neutral_B2,b,b,True,1262,3,11240,trainPhase
0,0,neutral_X3,x,a,False,3534,3,11240,subTestPhase
1,0,neutral_X7,x,b,False,1401,3,11240,subTestPhase
2,0,neutral_A2,a,a,True,1352,3,11240,subTestPhase
3,0,neutral_X0,x,b,False,2821,3,11240,subTestPhase
4,0,neutral_X8,x,b,False,1271,3,11240,subTestPhase
5,0,neutral_B3,b,b,True,1708,3,11240,subTestPhase
6,0,neutral_B0,b,b,True,1283,3,11240,subTestPhase
7,0,neutral_X4,x,b,False,5130,3,11240,subTestPhase
8,0,neutral_X5,x,b,False,1175,3,11240,subTestPhase
9,0,neutral_X1,x,b,False,1092,3,11240,subTestPhase
10,0,neutral_B1,b,b,True,1412,3,11240,subTestPhase
11,0,neutral_X2,x,b,False,1416,3,11240,subTestPhase
12,0,neutral_A1,a,a,True,1774,3,11240,subTestPhase
13,0,neutral_A3,a,a,True,1465,3,11240,subTestPhase
14,0,neutral_X6,x,b,False,1811,3,11240,subTestPhase
15,0,neutral_B2,b,b,True,2049,3,11240,subTestPhase
16,0,neutral_A0,a,a,True,1605,3,11240,subTestPhase
0,0,neutral_Y2,y,b,False,4264,3,11240,testPhase
1,0,neutral_Z6,z,a,False,1959,3,11240,testPhase
2,0,neutral_Z3,z,a,False,1363,3,11240,testPhase
3,0,neutral_Y4,y,b,False,2454,3,11240,testPhase
4,0,neutral_X5,x,b,False,1597,3,11240,testPhase
5,0,neutral_X2,x,b,False,1853,3,11240,testPhase
6,0,neutral_Y0,y,b,False,1757,3,11240,testPhase
7,0,neutral_W1,w,a,False,1437,3,11240,testPhase
8,0,neutral_X0,x,b,False,3371,3,11240,testPhase
9,0,neutral_Z1,z,a,False,2046,3,11240,testPhase
10,0,neutral_Z0,z,a,False,865,3,11240,testPhase
11,0,neutral_A2,a,b,False,2589,3,11240,testPhase
12,0,neutral_W8,w,a,False,1205,3,11240,testPhase
13,0,neutral_W2,w,a,False,894,3,11240,testPhase
14,0,neutral_Z7,z,a,False,2819,3,11240,testPhase
15,0,neutral_Z2,z,a,False,1043,3,11240,testPhase
16,0,neutral_X1,x,b,False,1564,3,11240,testPhase
17,0,neutral_Y7,y,b,False,1573,3,11240,testPhase
18,0,neutral_Y1,y,b,False,1086,3,11240,testPhase
19,0,neutral_X8,x,b,False,1715,3,11240,testPhase
20,0,neutral_Z8,z,a,False,1284,3,11240,testPhase
21,0,neutral_X7,x,b,False,1226,3,11240,testPhase
22,0,neutral_X4,x,b,False,966,3,11240,testPhase
23,0,neutral_A1,a,b,False,1718,3,11240,testPhase
24,0,neutral_A0,a,a,True,1102,3,11240,testPhase
25,0,neutral_W6,w,a,False,2781,3,11240,testPhase
26,0,neutral_X3,x,b,False,1144,3,11240,testPhase
27,0,neutral_Y6,y,a,False,1182,3,11240,testPhase
28,0,neutral_Y5,y,b,False,2566,3,11240,testPhase
29,0,neutral_W7,w,a,False,2154,3,11240,testPhase
30,0,neutral_Z4,z,a,False,2374,3,11240,testPhase
31,0,neutral_Y3,y,b,False,1032,3,11240,testPhase
32,0,neutral_A3,a,b,False,3924,3,11240,testPhase
33,0,neutral_W3,w,a,False,1366,3,11240,testPhase
34,0,neutral_W0,w,a,False,824,3,11240,testPhase
35,0,neutral_B3,b,b,True,1419,3,11240,testPhase
36,0,neutral_W5,w,a,False,911,3,11240,testPhase
37,0,neutral_Z5,z,b,False,1038,3,11240,testPhase
38,0,neutral_Y8,y,b,False,2850,3,11240,testPhase
39,0,neutral_W4,w,a,False,1277,3,11240,testPhase
40,0,neutral_B1,b,b,True,1226,3,11240,testPhase
41,0,neutral_X6,x,a,False,995,3,11240,testPhase
42,0,neutral_B2,b,b,True,2264,3,11240,testPhase
43,0,neutral_B0,b,b,True,1133,3,11240,testPhase
0,0,neutral_A0,a,a,True,2118,3,11241,trainPhase
1,0,neutral_B1,b,b,True,2752,3,11241,trainPhase
2,0,neutral_A1,a,a,True,1965,3,11241,trainPhase
3,0,neutral_B2,b,b,True,1262,3,11241,trainPhase
4,0,neutral_B0,b,b,True,1247,3,11241,trainPhase
5,0,neutral_A2,a,b,False,2074,3,11241,trainPhase
6,0,neutral_A3,a,a,True,1516,3,11241,trainPhase
7,0,neutral_B3,b,b,True,2542,3,11241,trainPhase
0,1,neutral_B0,b,b,True,1518,3,11241,trainPhase
1,1,neutral_A3,a,a,True,1108,3,11241,trainPhase
2,1,neutral_A2,a,a,True,1158,3,11241,trainPhase
3,1,neutral_A0,a,a,True,1345,3,11241,trainPhase
4,1,neutral_B1,b,b,True,1885,3,11241,trainPhase
5,1,neutral_B3,b,a,False,1293,3,11241,trainPhase
6,1,neutral_B2,b,b,True,1622,3,11241,trainPhase
7,1,neutral_A1,a,a,True,5574,3,11241,trainPhase
0,2,neutral_B1,b,b,True,1317,3,11241,trainPhase
1,2,neutral_B2,b,b,True,9613,3,11241,trainPhase
2,2,neutral_B0,b,b,True,1083,3,11241,trainPhase
3,2,neutral_B3,b,b,True,1139,3,11241,trainPhase
4,2,neutral_A3,a,b,False,1706,3,11241,trainPhase
5,2,neutral_A2,a,a,True,969,3,11241,trainPhase
6,2,neutral_A1,a,a,True,18051,3,11241,trainPhase
7,2,neutral_A0,a,a,True,9485,3,11241,trainPhase
0,3,neutral_B0,b,b,True,2225,3,11241,trainPhase
1,3,neutral_B3,b,b,True,1054,3,11241,trainPhase
2,3,neutral_B2,b,b,True,792,3,11241,trainPhase
3,3,neutral_A1,a,a,True,1445,3,11241,trainPhase
4,3,neutral_B1,b,b,True,902,3,11241,trainPhase
5,3,neutral_A0,a,a,True,1202,3,11241,trainPhase
6,3,neutral_A3,a,a,True,1294,3,11241,trainPhase
7,3,neutral_A2,a,a,True,1444,3,11241,trainPhase
0,4,neutral_B0,b,b,True,1353,3,11241,trainPhase
1,4,neutral_A2,a,a,True,1052,3,11241,trainPhase
2,4,neutral_B2,b,b,True,862,3,11241,trainPhase
3,4,neutral_A1,a,a,True,1038,3,11241,trainPhase
0,0,neutral_X7,x,a,False,1416,3,11241,subTestPhase
1,0,neutral_B0,b,b,True,1357,3,11241,subTestPhase
2,0,neutral_X4,x,a,False,2138,3,11241,subTestPhase
3,0,neutral_X0,x,a,False,2302,3,11241,subTestPhase
4,0,neutral_B2,b,b,True,1213,3,11241,subTestPhase
5,0,neutral_B1,b,b,True,820,3,11241,subTestPhase
6,0,neutral_A1,a,a,True,970,3,11241,subTestPhase
7,0,neutral_X8,x,a,False,906,3,11241,subTestPhase
8,0,neutral_X5,x,a,False,828,3,11241,subTestPhase
9,0,neutral_A0,a,b,False,976,3,11241,subTestPhase
10,0,neutral_B3,b,b,True,1806,3,11241,subTestPhase
11,0,neutral_X1,x,a,False,815,3,11241,subTestPhase
12,0,neutral_X3,x,a,False,890,3,11241,subTestPhase
13,0,neutral_X2,x,a,False,988,3,11241,subTestPhase
14,0,neutral_A2,a,a,True,665,3,11241,subTestPhase
15,0,neutral_X6,x,a,False,617,3,11241,subTestPhase
16,0,neutral_A3,a,a,True,632,3,11241,subTestPhase
0,0,neutral_X0,x,a,False,2426,3,11241,testPhase
1,0,neutral_X8,x,a,False,747,3,11241,testPhase
2,0,neutral_A1,a,b,False,877,3,11241,testPhase
3,0,neutral_Z7,z,b,False,1798,3,11241,testPhase
4,0,neutral_W4,w,b,False,1890,3,11241,testPhase
5,0,neutral_Y7,y,b,False,1286,3,11241,testPhase
6,0,neutral_Y4,y,b,False,721,3,11241,testPhase
7,0,neutral_X1,x,a,False,1043,3,11241,testPhase
8,0,neutral_B2,b,b,True,1525,3,11241,testPhase
9,0,neutral_W8,w,a,False,830,3,11241,testPhase
10,0,neutral_A2,a,a,True,3950,3,11241,testPhase
11,0,neutral_X5,x,a,False,870,3,11241,testPhase
12,0,neutral_X3,x,a,False,662,3,11241,testPhase
13,0,neutral_Z3,z,a,False,1174,3,11241,testPhase
14,0,neutral_Z2,z,a,False,658,3,11241,testPhase
15,0,neutral_Y3,y,b,False,927,3,11241,testPhase
16,0,neutral_W3,w,a,False,1271,3,11241,testPhase
17,0,neutral_B0,b,b,True,2933,3,11241,testPhase
18,0,neutral_X7,x,a,False,692,3,11241,testPhase
19,0,neutral_W7,w,a,False,432,3,11241,testPhase
20,0,neutral_Y8,y,b,False,1118,3,11241,testPhase
21,0,neutral_Y5,y,b,False,797,3,11241,testPhase
22,0,neutral_B1,b,b,True,1180,3,11241,testPhase
23,0,neutral_Z1,z,a,False,806,3,11241,testPhase
24,0,neutral_B3,b,b,True,1349,3,11241,testPhase
25,0,neutral_A3,a,a,True,1127,3,11241,testPhase
26,0,neutral_A0,a,a,True,688,3,11241,testPhase
27,0,neutral_W5,w,a,False,818,3,11241,testPhase
28,0,neutral_Z0,z,a,False,2633,3,11241,testPhase
29,0,neutral_Y1,y,b,False,1172,3,11241,testPhase
30,0,neutral_W6,w,a,False,1502,3,11241,testPhase
31,0,neutral_Y6,y,b,False,959,3,11241,testPhase
32,0,neutral_X6,x,a,False,1070,3,11241,testPhase
33,0,neutral_X2,x,a,False,724,3,11241,testPhase
34,0,neutral_W1,w,a,False,2408,3,11241,testPhase
35,0,neutral_W2,w,a,False,791,3,11241,testPhase
36,0,neutral_Z4,z,a,False,2506,3,11241,testPhase
37,0,neutral_W0,w,b,False,903,3,11241,testPhase
38,0,neutral_Z8,z,a,False,837,3,11241,testPhase
39,0,neutral_Y0,y,b,False,1085,3,11241,testPhase
40,0,neutral_Y2,y,b,False,910,3,11241,testPhase
41,0,neutral_X4,x,a,False,813,3,11241,testPhase
42,0,neutral_Z6,z,a,False,1213,3,11241,testPhase
43,0,neutral_Z5,z,a,False,538,3,11241,testPhase
0,0,neutral_A0,a,a,True,2403,3,11242,trainPhase
1,0,neutral_B2,b,a,False,2212,3,11242,trainPhase
2,0,neutral_A3,a,b,False,1029,3,11242,trainPhase
3,0,neutral_A2,a,a,True,3716,3,11242,trainPhase
4,0,neutral_B3,b,b,True,2080,3,11242,trainPhase
5,0,neutral_A1,a,a,True,1865,3,11242,trainPhase
6,0,neutral_B0,b,a,False,4144,3,11242,trainPhase
7,0,neutral_B1,b,b,True,1221,3,11242,trainPhase
0,1,neutral_B2,b,a,False,1062,3,11242,trainPhase
1,1,neutral_A2,a,a,True,4613,3,11242,trainPhase
2,1,neutral_B1,b,b,True,2255,3,11242,trainPhase
3,1,neutral_B0,b,b,True,1511,3,11242,trainPhase
4,1,neutral_A1,a,b,False,4460,3,11242,trainPhase
5,1,neutral_A3,a,a,True,1469,3,11242,trainPhase
6,1,neutral_A0,a,a,True,1638,3,11242,trainPhase
7,1,neutral_B3,b,b,True,1491,3,11242,trainPhase
0,2,neutral_A2,a,a,True,1355,3,11242,trainPhase
1,2,neutral_A1,a,a,True,2304,3,11242,trainPhase
2,2,neutral_B1,b,b,True,1282,3,11242,trainPhase
3,2,neutral_B3,b,b,True,1817,3,11242,trainPhase
4,2,neutral_B0,b,b,True,1364,3,11242,trainPhase
5,2,neutral_B2,b,b,True,1711,3,11242,trainPhase
6,2,neutral_A3,a,a,True,1198,3,11242,trainPhase
7,2,neutral_A0,a,a,True,1027,3,11242,trainPhase
0,3,neutral_B3,b,b,True,2452,3,11242,trainPhase
1,3,neutral_A0,a,a,True,1341,3,11242,trainPhase
2,3,neutral_B1,b,b,True,1519,3,11242,trainPhase
3,3,neutral_A2,a,a,True,914,3,11242,trainPhase
0,0,neutral_X7,x,a,False,1820,3,11242,subTestPhase
1,0,neutral_X1,x,a,False,1069,3,11242,subTestPhase
2,0,neutral_A1,a,a,True,643,3,11242,subTestPhase
3,0,neutral_B1,b,b,True,950,3,11242,subTestPhase
4,0,neutral_X6,x,a,False,922,3,11242,subTestPhase
5,0,neutral_B0,b,b,True,2661,3,11242,subTestPhase
6,0,neutral_B3,b,b,True,767,3,11242,subTestPhase
7,0,neutral_X2,x,a,False,1238,3,11242,subTestPhase
8,0,neutral_X4,x,a,False,602,3,11242,subTestPhase
9,0,neutral_X3,x,a,False,1078,3,11242,subTestPhase
10,0,neutral_A3,a,a,True,1014,3,11242,subTestPhase
11,0,neutral_X8,x,a,False,646,3,11242,subTestPhase
12,0,neutral_B2,b,b,True,1067,3,11242,subTestPhase
13,0,neutral_X5,x,a,False,1130,3,11242,subTestPhase
14,0,neutral_A2,a,a,True,2536,3,11242,subTestPhase
15,0,neutral_A0,a,a,True,814,3,11242,subTestPhase
16,0,neutral_X0,x,a,False,885,3,11242,subTestPhase
0,0,neutral_Z3,z,a,False,5525,3,11242,testPhase
1,0,neutral_Z4,z,a,False,851,3,11242,testPhase
2,0,neutral_X3,x,a,False,943,3,11242,testPhase
3,0,neutral_X2,x,a,False,662,3,11242,testPhase
4,0,neutral_W1,w,a,False,1892,3,11242,testPhase
5,0,neutral_W8,w,a,False,563,3,11242,testPhase
6,0,neutral_W6,w,a,False,679,3,11242,testPhase
7,0,neutral_A0,a,a,True,502,3,11242,testPhase
8,0,neutral_W3,w,a,False,542,3,11242,testPhase
9,0,neutral_Y8,y,b,False,1125,3,11242,testPhase
10,0,neutral_Z5,z,a,False,1205,3,11242,testPhase
11,0,neutral_Z0,z,a,False,907,3,11242,testPhase
12,0,neutral_Y4,y,b,False,2526,3,11242,testPhase
13,0,neutral_Y2,y,b,False,926,3,11242,testPhase
14,0,neutral_Z1,z,a,False,1133,3,11242,testPhase
15,0,neutral_W4,w,a,False,1341,3,11242,testPhase
16,0,neutral_Y5,y,b,False,1126,3,11242,testPhase
17,0,neutral_W2,w,a,False,1182,3,11242,testPhase
18,0,neutral_Z6,z,a,False,1821,3,11242,testPhase
19,0,neutral_B0,b,a,False,3821,3,11242,testPhase
20,0,neutral_Y1,y,b,False,1017,3,11242,testPhase
21,0,neutral_B3,b,a,False,1493,3,11242,testPhase
22,0,neutral_X8,x,a,False,926,3,11242,testPhase
23,0,neutral_X0,x,a,False,676,3,11242,testPhase
24,0,neutral_Y3,y,b,False,822,3,11242,testPhase
25,0,neutral_X5,x,a,False,1332,3,11242,testPhase
26,0,neutral_A1,a,a,True,830,3,11242,testPhase
27,0,neutral_Y6,y,b,False,1278,3,11242,testPhase
28,0,neutral_W5,w,a,False,703,3,11242,testPhase
29,0,neutral_W7,w,a,False,591,3,11242,testPhase
30,0,neutral_X1,x,a,False,470,3,11242,testPhase
31,0,neutral_B1,b,a,False,974,3,11242,testPhase
32,0,neutral_Y0,y,b,False,1675,3,11242,testPhase
33,0,neutral_A3,a,a,True,862,3,11242,testPhase
34,0,neutral_A2,a,a,True,950,3,11242,testPhase
35,0,neutral_W0,w,a,False,1349,3,11242,testPhase
36,0,neutral_Z2,z,a,False,1331,3,11242,testPhase
37,0,neutral_Y7,y,b,False,1261,3,11242,testPhase
38,0,neutral_Z7,z,a,False,752,3,11242,testPhase
39,0,neutral_X7,x,a,False,1046,3,11242,testPhase
40,0,neutral_X6,x,a,False,453,3,11242,testPhase
41,0,neutral_Z8,z,a,False,663,3,11242,testPhase
42,0,neutral_B2,b,a,False,525,3,11242,testPhase
43,0,neutral_X4,x,a,False,1413,3,11242,testPhase
0,0,neutral_A3,a,b,False,4758,3,11243,trainPhase
1,0,neutral_A0,a,a,True,1356,3,11243,trainPhase
2,0,neutral_B3,b,a,False,1294,3,11243,trainPhase
3,0,neutral_A1,a,a,True,1342,3,11243,trainPhase
4,0,neutral_B1,b,b,True,1509,3,11243,trainPhase
5,0,neutral_B0,b,a,False,1813,3,11243,trainPhase
6,0,neutral_A2,a,a,True,2350,3,11243,trainPhase
7,0,neutral_B2,b,b,True,837,3,11243,trainPhase
0,1,neutral_A1,a,a,True,725,3,11243,trainPhase
1,1,neutral_B0,b,b,True,756,3,11243,trainPhase
2,1,neutral_A0,a,a,True,774,3,11243,trainPhase
3,1,neutral_A2,a,b,False,1038,3,11243,trainPhase
4,1,neutral_B2,b,b,True,1181,3,11243,trainPhase
5,1,neutral_B3,b,b,True,1830,3,11243,trainPhase
6,1,neutral_B1,b,b,True,1118,3,11243,trainPhase
7,1,neutral_A3,a,a,True,837,3,11243,trainPhase
0,2,neutral_A1,a,a,True,733,3,11243,trainPhase
1,2,neutral_A2,a,a,True,1157,3,11243,trainPhase
2,2,neutral_B0,b,b,True,1012,3,11243,trainPhase
3,2,neutral_B1,b,b,True,757,3,11243,trainPhase
4,2,neutral_A3,a,a,True,1277,3,11243,trainPhase
5,2,neutral_B2,b,b,True,685,3,11243,trainPhase
6,2,neutral_A0,a,a,True,628,3,11243,trainPhase
7,2,neutral_B3,b,b,True,756,3,11243,trainPhase
0,3,neutral_B0,b,b,True,830,3,11243,trainPhase
1,3,neutral_B2,b,b,True,860,3,11243,trainPhase
2,3,neutral_A3,a,a,True,877,3,11243,trainPhase
0,0,neutral_B0,b,b,True,2076,3,11243,subTestPhase
1,0,neutral_X5,x,a,False,1190,3,11243,subTestPhase
2,0,neutral_X7,x,a,False,1044,3,11243,subTestPhase
3,0,neutral_X3,x,a,False,1149,3,11243,subTestPhase
4,0,neutral_X8,x,a,False,726,3,11243,subTestPhase
5,0,neutral_B1,b,b,True,677,3,11243,subTestPhase
6,0,neutral_A3,a,a,True,694,3,11243,subTestPhase
7,0,neutral_A0,a,a,True,934,3,11243,subTestPhase
8,0,neutral_B2,b,b,True,527,3,11243,subTestPhase
9,0,neutral_X0,x,a,False,590,3,11243,subTestPhase
10,0,neutral_A1,a,a,True,726,3,11243,subTestPhase
11,0,neutral_X6,x,a,False,926,3,11243,subTestPhase
12,0,neutral_X1,x,a,False,711,3,11243,subTestPhase
13,0,neutral_B3,b,b,True,702,3,11243,subTestPhase
14,0,neutral_X2,x,a,False,1358,3,11243,subTestPhase
15,0,neutral_X4,x,a,False,566,3,11243,subTestPhase
16,0,neutral_A2,a,b,False,531,3,11243,subTestPhase
0,0,neutral_X6,x,a,False,934,3,11243,testPhase
1,0,neutral_Y4,y,b,False,646,3,11243,testPhase
2,0,neutral_X1,x,a,False,646,3,11243,testPhase
3,0,neutral_W1,w,a,False,895,3,11243,testPhase
4,0,neutral_X7,x,a,False,759,3,11243,testPhase
5,0,neutral_W5,w,a,False,869,3,11243,testPhase
6,0,neutral_W2,w,a,False,990,3,11243,testPhase
7,0,neutral_W0,w,a,False,1527,3,11243,testPhase
8,0,neutral_X4,x,a,False,725,3,11243,testPhase
9,0,neutral_Y8,y,b,False,767,3,11243,testPhase
10,0,neutral_X2,x,a,False,855,3,11243,testPhase
11,0,neutral_Y1,y,b,False,527,3,11243,testPhase
12,0,neutral_B0,b,b,True,6404,3,11243,testPhase
13,0,neutral_W8,w,a,False,854,3,11243,testPhase
14,0,neutral_W4,w,a,False,621,3,11243,testPhase
15,0,neutral_Z5,z,a,False,1670,3,11243,testPhase
16,0,neutral_X5,x,a,False,822,3,11243,testPhase
17,0,neutral_Z8,z,a,False,998,3,11243,testPhase
18,0,neutral_B2,b,b,True,1421,3,11243,testPhase
19,0,neutral_B3,b,b,True,894,3,11243,testPhase
20,0,neutral_Z2,z,a,False,1993,3,11243,testPhase
21,0,neutral_A2,a,a,True,862,3,11243,testPhase
22,0,neutral_Z1,z,b,False,1005,3,11243,testPhase
23,0,neutral_B1,b,b,True,1366,3,11243,testPhase
24,0,neutral_A1,a,a,True,1029,3,11243,testPhase
25,0,neutral_X8,x,a,False,799,3,11243,testPhase
26,0,neutral_Y5,y,b,False,929,3,11243,testPhase
27,0,neutral_W7,w,a,False,719,3,11243,testPhase
28,0,neutral_Y7,y,b,False,1134,3,11243,testPhase
29,0,neutral_X0,x,a,False,662,3,11243,testPhase
30,0,neutral_Y3,y,b,False,486,3,11243,testPhase
31,0,neutral_Z0,z,a,False,1271,3,11243,testPhase
32,0,neutral_Y6,y,b,False,623,3,11243,testPhase
33,0,neutral_A3,a,a,True,647,3,11243,testPhase
34,0,neutral_Y2,y,b,False,463,3,11243,testPhase
35,0,neutral_Y0,y,b,False,908,3,11243,testPhase
36,0,neutral_Z7,z,a,False,869,3,11243,testPhase
37,0,neutral_X3,x,a,False,846,3,11243,testPhase
38,0,neutral_Z6,z,a,False,718,3,11243,testPhase
39,0,neutral_Z3,z,a,False,733,3,11243,testPhase
40,0,neutral_A0,a,a,True,893,3,11243,testPhase
41,0,neutral_W6,w,a,False,1254,3,11243,testPhase
42,0,neutral_Z4,z,a,False,1437,3,11243,testPhase
43,0,neutral_W3,w,a,False,1742,3,11243,testPhase
0,0,neutral_A1,a,a,True,4283,3,11285,trainPhase
1,0,neutral_B1,b,a,False,2207,3,11285,trainPhase
2,0,neutral_A3,a,b,False,1611,3,11285,trainPhase
3,0,neutral_B2,b,b,True,2690,3,11285,trainPhase
4,0,neutral_B3,b,a,False,2331,3,11285,trainPhase
5,0,neutral_A0,a,a,True,2310,3,11285,trainPhase
6,0,neutral_A2,a,b,False,2341,3,11285,trainPhase
7,0,neutral_B0,b,a,False,2248,3,11285,trainPhase
0,1,neutral_A0,a,a,True,1410,3,11285,trainPhase
1,1,neutral_A2,a,b,False,1326,3,11285,trainPhase
2,1,neutral_B0,b,b,True,2060,3,11285,trainPhase
3,1,neutral_A3,a,a,True,968,3,11285,trainPhase
4,1,neutral_B3,b,b,True,1055,3,11285,trainPhase
5,1,neutral_A1,a,b,False,1119,3,11285,trainPhase
6,1,neutral_B2,b,b,True,1383,3,11285,trainPhase
7,1,neutral_B1,b,b,True,1283,3,11285,trainPhase
0,2,neutral_B1,b,b,True,1326,3,11285,trainPhase
1,2,neutral_A2,a,a,True,985,3,11285,trainPhase
2,2,neutral_A0,a,a,True,1737,3,11285,trainPhase
3,2,neutral_B2,b,b,True,1205,3,11285,trainPhase
4,2,neutral_A1,a,a,True,1107,3,11285,trainPhase
5,2,neutral_B3,b,b,True,1109,3,11285,trainPhase
6,2,neutral_B0,b,b,True,949,3,11285,trainPhase
7,2,neutral_A3,a,a,True,978,3,11285,trainPhase
0,3,neutral_B1,b,b,True,870,3,11285,trainPhase
1,3,neutral_A3,a,a,True,1157,3,11285,trainPhase
2,3,neutral_B0,b,b,True,935,3,11285,trainPhase
3,3,neutral_A0,a,a,True,909,3,11285,trainPhase
4,3,neutral_A2,a,a,True,1020,3,11285,trainPhase
0,0,neutral_X3,x,a,False,1009,3,11285,subTestPhase
1,0,neutral_X2,x,a,False,839,3,11285,subTestPhase
2,0,neutral_B0,b,b,True,812,3,11285,subTestPhase
3,0,neutral_A2,a,a,True,992,3,11285,subTestPhase
4,0,neutral_X1,x,a,False,1021,3,11285,subTestPhase
5,0,neutral_X8,x,a,False,838,3,11285,subTestPhase
6,0,neutral_X5,x,a,False,820,3,11285,subTestPhase
7,0,neutral_A3,a,a,True,1170,3,11285,subTestPhase
8,0,neutral_X7,x,a,False,963,3,11285,subTestPhase
9,0,neutral_B1,b,b,True,2077,3,11285,subTestPhase
10,0,neutral_A1,a,a,True,942,3,11285,subTestPhase
11,0,neutral_X6,x,a,False,1110,3,11285,subTestPhase
12,0,neutral_B3,b,b,True,1029,3,11285,subTestPhase
13,0,neutral_X4,x,a,False,831,3,11285,subTestPhase
14,0,neutral_A0,a,b,False,709,3,11285,subTestPhase
15,0,neutral_X0,x,a,False,854,3,11285,subTestPhase
16,0,neutral_B2,b,b,True,957,3,11285,subTestPhase
0,0,neutral_Y0,y,b,False,1547,3,11285,testPhase
1,0,neutral_Y6,y,b,False,1052,3,11285,testPhase
2,0,neutral_Z5,z,a,False,839,3,11285,testPhase
3,0,neutral_Z1,z,a,False,1211,3,11285,testPhase
4,0,neutral_X6,x,a,False,975,3,11285,testPhase
5,0,neutral_Z6,z,a,False,1251,3,11285,testPhase
6,0,neutral_B3,b,b,True,1232,3,11285,testPhase
7,0,neutral_A0,a,a,True,886,3,11285,testPhase
8,0,neutral_B0,b,b,True,1235,3,11285,testPhase
9,0,neutral_Z0,z,a,False,1646,3,11285,testPhase
10,0,neutral_W7,w,a,False,1108,3,11285,testPhase
11,0,neutral_Y2,y,b,False,880,3,11285,testPhase
12,0,neutral_X2,x,a,False,944,3,11285,testPhase
13,0,neutral_W4,w,b,False,996,3,11285,testPhase
14,0,neutral_A3,a,a,True,1607,3,11285,testPhase
15,0,neutral_B2,b,b,True,1014,3,11285,testPhase
16,0,neutral_W3,w,a,False,933,3,11285,testPhase
17,0,neutral_W0,w,a,False,863,3,11285,testPhase
18,0,neutral_Y5,y,b,False,839,3,11285,testPhase
19,0,neutral_Y3,y,b,False,941,3,11285,testPhase
20,0,neutral_Y4,y,b,False,995,3,11285,testPhase
21,0,neutral_X8,x,a,False,909,3,11285,testPhase
22,0,neutral_Z2,z,a,False,950,3,11285,testPhase
23,0,neutral_W8,w,a,False,1325,3,11285,testPhase
24,0,neutral_X4,x,a,False,952,3,11285,testPhase
25,0,neutral_B1,b,b,True,942,3,11285,testPhase
26,0,neutral_A2,a,a,True,1269,3,11285,testPhase
27,0,neutral_X5,x,a,False,871,3,11285,testPhase
28,0,neutral_Z3,z,a,False,2155,3,11285,testPhase
29,0,neutral_Y7,y,b,False,1036,3,11285,testPhase
30,0,neutral_W6,w,a,False,1029,3,11285,testPhase
31,0,neutral_W1,w,b,False,1149,3,11285,testPhase
32,0,neutral_Z7,z,a,False,2070,3,11285,testPhase
33,0,neutral_X1,x,a,False,1362,3,11285,testPhase
34,0,neutral_Z8,z,a,False,825,3,11285,testPhase
35,0,neutral_Z4,z,a,False,846,3,11285,testPhase
36,0,neutral_X3,x,a,False,911,3,11285,testPhase
37,0,neutral_W2,w,a,False,1592,3,11285,testPhase
38,0,neutral_Y8,y,b,False,1003,3,11285,testPhase
39,0,neutral_A1,a,a,True,2006,3,11285,testPhase
40,0,neutral_W5,w,a,False,1088,3,11285,testPhase
41,0,neutral_Y1,y,b,False,1015,3,11285,testPhase
42,0,neutral_X7,x,a,False,911,3,11285,testPhase
43,0,neutral_X0,x,a,False,2008,3,11285,testPhase
0,0,neutral_B3,b,b,True,3643,3,11286,trainPhase
1,0,neutral_A3,a,a,True,1166,3,11286,trainPhase
2,0,neutral_B0,b,b,True,1606,3,11286,trainPhase
3,0,neutral_A0,a,a,True,1764,3,11286,trainPhase
4,0,neutral_B2,b,b,True,1397,3,11286,trainPhase
5,0,neutral_A2,a,a,True,965,3,11286,trainPhase
6,0,neutral_B1,b,b,True,1153,3,11286,trainPhase
7,0,neutral_A1,a,a,True,1105,3,11286,trainPhase
0,1,neutral_A2,a,a,True,1136,3,11286,trainPhase
1,1,neutral_A1,a,a,True,916,3,11286,trainPhase
2,1,neutral_A0,a,a,True,1711,3,11286,trainPhase
3,1,neutral_A3,a,a,True,1248,3,11286,trainPhase
4,1,neutral_B2,b,b,True,1099,3,11286,trainPhase
5,1,neutral_B1,b,b,True,692,3,11286,trainPhase
6,1,neutral_B0,b,b,True,685,3,11286,trainPhase
0,0,neutral_B1,b,b,True,1294,3,11286,subTestPhase
1,0,neutral_B2,b,b,True,1046,3,11286,subTestPhase
2,0,neutral_X7,x,a,False,1029,3,11286,subTestPhase
3,0,neutral_X0,x,a,False,917,3,11286,subTestPhase
4,0,neutral_A3,a,a,True,839,3,11286,subTestPhase
5,0,neutral_X8,x,a,False,850,3,11286,subTestPhase
6,0,neutral_A2,a,a,True,759,3,11286,subTestPhase
7,0,neutral_X2,x,a,False,805,3,11286,subTestPhase
8,0,neutral_X5,x,a,False,1031,3,11286,subTestPhase
9,0,neutral_X6,x,a,False,801,3,11286,subTestPhase
10,0,neutral_A0,a,a,True,994,3,11286,subTestPhase
11,0,neutral_B3,b,b,True,1308,3,11286,subTestPhase
12,0,neutral_B0,b,b,True,611,3,11286,subTestPhase
13,0,neutral_A1,a,a,True,1016,3,11286,subTestPhase
14,0,neutral_X4,x,a,False,801,3,11286,subTestPhase
15,0,neutral_X3,x,a,False,598,3,11286,subTestPhase
16,0,neutral_X1,x,a,False,845,3,11286,subTestPhase
0,0,neutral_Y7,y,b,False,2222,3,11286,testPhase
1,0,neutral_W3,w,a,False,2605,3,11286,testPhase
2,0,neutral_Z6,z,a,False,1223,3,11286,testPhase
3,0,neutral_Y2,y,b,False,1116,3,11286,testPhase
4,0,neutral_Z5,z,a,False,940,3,11286,testPhase
5,0,neutral_X5,x,a,False,783,3,11286,testPhase
6,0,neutral_Z2,z,a,False,582,3,11286,testPhase
7,0,neutral_B2,b,b,True,2174,3,11286,testPhase
8,0,neutral_Y3,y,b,False,791,3,11286,testPhase
9,0,neutral_W8,w,a,False,1001,3,11286,testPhase
10,0,neutral_Y4,y,b,False,1085,3,11286,testPhase
11,0,neutral_B0,b,a,False,925,3,11286,testPhase
12,0,neutral_Z8,z,a,False,811,3,11286,testPhase
13,0,neutral_A0,a,a,True,1126,3,11286,testPhase
14,0,neutral_Y1,y,b,False,1038,3,11286,testPhase
15,0,neutral_X0,x,a,False,800,3,11286,testPhase
16,0,neutral_Z0,z,a,False,1780,3,11286,testPhase
17,0,neutral_X1,x,a,False,1077,3,11286,testPhase
18,0,neutral_W4,w,a,False,1196,3,11286,testPhase
19,0,neutral_W6,w,a,False,1353,3,11286,testPhase
20,0,neutral_A2,a,a,True,983,3,11286,testPhase
21,0,neutral_X2,x,a,False,660,3,11286,testPhase
22,0,neutral_X3,x,a,False,713,3,11286,testPhase
23,0,neutral_Z4,z,a,False,696,3,11286,testPhase
24,0,neutral_W7,w,a,False,1123,3,11286,testPhase
25,0,neutral_W1,w,a,False,1980,3,11286,testPhase
26,0,neutral_Y8,y,b,False,1147,3,11286,testPhase
27,0,neutral_W2,w,a,False,1582,3,11286,testPhase
28,0,neutral_A1,a,a,True,862,3,11286,testPhase
29,0,neutral_Y5,y,b,False,651,3,11286,testPhase
30,0,neutral_X8,x,a,False,686,3,11286,testPhase
31,0,neutral_X7,x,a,False,758,3,11286,testPhase
32,0,neutral_X6,x,a,False,734,3,11286,testPhase
33,0,neutral_Y6,y,b,False,994,3,11286,testPhase
34,0,neutral_B3,b,a,False,1445,3,11286,testPhase
35,0,neutral_W0,w,b,False,2663,3,11286,testPhase
36,0,neutral_B1,b,a,False,811,3,11286,testPhase
37,0,neutral_W5,w,a,False,1109,3,11286,testPhase
38,0,neutral_Y0,y,b,False,870,3,11286,testPhase
39,0,neutral_Z3,z,a,False,1070,3,11286,testPhase
40,0,neutral_Z7,z,a,False,867,3,11286,testPhase
41,0,neutral_X4,x,a,False,671,3,11286,testPhase
42,0,neutral_A3,a,a,True,445,3,11286,testPhase
43,0,neutral_Z1,z,a,False,606,3,11286,testPhase
0,0,neutral_A3,a,a,True,2763,3,11287,trainPhase
1,0,neutral_B1,b,a,False,2378,3,11287,trainPhase
2,0,neutral_B3,b,a,False,2967,3,11287,trainPhase
3,0,neutral_A2,a,b,False,905,3,11287,trainPhase
4,0,neutral_B2,b,b,True,1643,3,11287,trainPhase
5,0,neutral_A1,a,b,False,3268,3,11287,trainPhase
6,0,neutral_A0,a,a,True,5023,3,11287,trainPhase
7,0,neutral_B0,b,b,True,1510,3,11287,trainPhase
0,1,neutral_A3,a,b,False,4780,3,11287,trainPhase
1,1,neutral_B1,b,a,False,13312,3,11287,trainPhase
2,1,neutral_A0,a,a,True,3299,3,11287,trainPhase
3,1,neutral_A2,a,a,True,10500,3,11287,trainPhase
4,1,neutral_B3,b,b,True,1877,3,11287,trainPhase
5,1,neutral_A1,a,a,True,1933,3,11287,trainPhase
6,1,neutral_B2,b,b,True,4701,3,11287,trainPhase
7,1,neutral_B0,b,b,True,1119,3,11287,trainPhase
0,2,neutral_A0,a,a,True,979,3,11287,trainPhase
1,2,neutral_B0,b,b,True,1150,3,11287,trainPhase
2,2,neutral_A3,a,b,False,2467,3,11287,trainPhase
3,2,neutral_A1,a,a,True,4277,3,11287,trainPhase
4,2,neutral_B2,b,b,True,946,3,11287,trainPhase
5,2,neutral_B1,b,b,True,1950,3,11287,trainPhase
6,2,neutral_A2,a,a,True,3396,3,11287,trainPhase
7,2,neutral_B3,b,b,True,1717,3,11287,trainPhase
0,3,neutral_A0,a,a,True,4925,3,11287,trainPhase
1,3,neutral_A3,a,a,True,1300,3,11287,trainPhase
2,3,neutral_B0,b,b,True,1054,3,11287,trainPhase
3,3,neutral_A1,a,a,True,6126,3,11287,trainPhase
4,3,neutral_B3,b,b,True,1347,3,11287,trainPhase
5,3,neutral_A2,a,a,True,847,3,11287,trainPhase
6,3,neutral_B1,b,b,True,1951,3,11287,trainPhase
7,3,neutral_B2,b,b,True,2909,3,11287,trainPhase
0,4,neutral_A3,a,a,True,1645,3,11287,trainPhase
1,4,neutral_B3,b,b,True,1208,3,11287,trainPhase
0,0,neutral_B0,b,b,True,11109,3,11287,subTestPhase
1,0,neutral_B2,b,b,True,1490,3,11287,subTestPhase
2,0,neutral_X7,x,a,False,3196,3,11287,subTestPhase
3,0,neutral_X5,x,a,False,2832,3,11287,subTestPhase
4,0,neutral_X2,x,a,False,1261,3,11287,subTestPhase
5,0,neutral_B1,b,b,True,1909,3,11287,subTestPhase
6,0,neutral_X8,x,a,False,1085,3,11287,subTestPhase
7,0,neutral_A0,a,a,True,2454,3,11287,subTestPhase
8,0,neutral_A3,a,a,True,1452,3,11287,subTestPhase
9,0,neutral_X3,x,b,False,1332,3,11287,subTestPhase
10,0,neutral_X1,x,b,False,1454,3,11287,subTestPhase
11,0,neutral_A2,a,a,True,1287,3,11287,subTestPhase
12,0,neutral_B3,b,b,True,1305,3,11287,subTestPhase
13,0,neutral_A1,a,b,False,770,3,11287,subTestPhase
14,0,neutral_X6,x,b,False,2662,3,11287,subTestPhase
15,0,neutral_X0,x,b,False,3675,3,11287,subTestPhase
16,0,neutral_X4,x,a,False,1193,3,11287,subTestPhase
0,0,neutral_B0,b,b,True,2846,3,11287,testPhase
1,0,neutral_X0,x,a,False,952,3,11287,testPhase
2,0,neutral_Y7,y,b,False,1355,3,11287,testPhase
3,0,neutral_A1,a,a,True,3037,3,11287,testPhase
4,0,neutral_W5,w,b,False,901,3,11287,testPhase
5,0,neutral_X4,x,a,False,1623,3,11287,testPhase
6,0,neutral_Y4,y,b,False,782,3,11287,testPhase
7,0,neutral_Y8,y,b,False,862,3,11287,testPhase
8,0,neutral_B3,b,a,False,1219,3,11287,testPhase
9,0,neutral_B2,b,a,False,2101,3,11287,testPhase
10,0,neutral_X7,x,a,False,1411,3,11287,testPhase
11,0,neutral_Z0,z,b,False,834,3,11287,testPhase
12,0,neutral_X5,x,a,False,1944,3,11287,testPhase
13,0,neutral_W6,w,b,False,1047,3,11287,testPhase
14,0,neutral_A2,a,a,True,759,3,11287,testPhase
15,0,neutral_Y5,y,b,False,902,3,11287,testPhase
16,0,neutral_Y3,y,b,False,711,3,11287,testPhase
17,0,neutral_W0,w,b,False,693,3,11287,testPhase
18,0,neutral_W4,w,a,False,1437,3,11287,testPhase
19,0,neutral_W3,w,a,False,683,3,11287,testPhase
20,0,neutral_Z7,z,b,False,1086,3,11287,testPhase
21,0,neutral_W7,w,a,False,1970,3,11287,testPhase
22,0,neutral_X2,x,a,False,863,3,11287,testPhase
23,0,neutral_Y6,y,b,False,752,3,11287,testPhase
24,0,neutral_Z1,z,b,False,753,3,11287,testPhase
25,0,neutral_A0,a,a,True,909,3,11287,testPhase
26,0,neutral_X3,x,a,False,2461,3,11287,testPhase
27,0,neutral_X6,x,a,False,901,3,11287,testPhase
28,0,neutral_W1,w,b,False,712,3,11287,testPhase
29,0,neutral_Z4,z,b,False,1743,3,11287,testPhase
30,0,neutral_Z2,z,b,False,652,3,11287,testPhase
31,0,neutral_Z8,z,b,False,571,3,11287,testPhase
32,0,neutral_Z5,z,b,False,736,3,11287,testPhase
33,0,neutral_Y1,y,b,False,797,3,11287,testPhase
34,0,neutral_Y0,y,b,False,606,3,11287,testPhase
35,0,neutral_W8,w,a,False,863,3,11287,testPhase
36,0,neutral_A3,a,b,False,1738,3,11287,testPhase
37,0,neutral_Y2,y,b,False,941,3,11287,testPhase
38,0,neutral_Z3,z,b,False,2281,3,11287,testPhase
39,0,neutral_X8,x,a,False,662,3,11287,testPhase
40,0,neutral_Z6,z,b,False,1718,3,11287,testPhase
41,0,neutral_B1,b,b,True,1211,3,11287,testPhase
42,0,neutral_W2,w,a,False,798,3,11287,testPhase
43,0,neutral_X1,x,b,False,825,3,11287,testPhase
0,0,neutral_A0,a,a,True,2403,3,11288,trainPhase
1,0,neutral_B0,b,b,True,2833,3,11288,trainPhase
2,0,neutral_A3,a,b,False,1869,3,11288,trainPhase
3,0,neutral_A1,a,a,True,3366,3,11288,trainPhase
4,0,neutral_B1,b,b,True,2374,3,11288,trainPhase
5,0,neutral_B3,b,b,True,1283,3,11288,trainPhase
6,0,neutral_A2,a,a,True,1613,3,11288,trainPhase
7,0,neutral_B2,b,b,True,2309,3,11288,trainPhase
0,1,neutral_B3,b,b,True,1417,3,11288,trainPhase
1,1,neutral_A1,a,a,True,1429,3,11288,trainPhase
2,1,neutral_B2,b,b,True,1209,3,11288,trainPhase
3,1,neutral_B1,b,b,True,1669,3,11288,trainPhase
4,1,neutral_A0,a,a,True,1769,3,11288,trainPhase
5,1,neutral_B0,b,b,True,1762,3,11288,trainPhase
6,1,neutral_A2,a,a,True,969,3,11288,trainPhase
7,1,neutral_A3,a,a,True,1574,3,11288,trainPhase
0,2,neutral_B0,b,b,True,1589,3,11288,trainPhase
1,2,neutral_A3,a,a,True,2165,3,11288,trainPhase
0,0,neutral_X8,x,a,False,2318,3,11288,subTestPhase
1,0,neutral_X2,x,a,False,2425,3,11288,subTestPhase
2,0,neutral_X0,x,b,False,1092,3,11288,subTestPhase
3,0,neutral_X7,x,a,False,1226,3,11288,subTestPhase
4,0,neutral_A2,a,a,True,2021,3,11288,subTestPhase
5,0,neutral_X6,x,a,False,1641,3,11288,subTestPhase
6,0,neutral_X3,x,a,False,1317,3,11288,subTestPhase
7,0,neutral_A0,a,a,True,1100,3,11288,subTestPhase
8,0,neutral_X5,x,a,False,1150,3,11288,subTestPhase
9,0,neutral_B0,b,b,True,836,3,11288,subTestPhase
10,0,neutral_B1,b,b,True,925,3,11288,subTestPhase
11,0,neutral_A1,a,a,True,1550,3,11288,subTestPhase
12,0,neutral_X4,x,a,False,827,3,11288,subTestPhase
13,0,neutral_B3,b,b,True,1121,3,11288,subTestPhase
14,0,neutral_B2,b,b,True,822,3,11288,subTestPhase
15,0,neutral_X1,x,a,False,754,3,11288,subTestPhase
16,0,neutral_A3,a,a,True,1597,3,11288,subTestPhase
0,0,neutral_X6,x,a,False,1515,3,11288,testPhase
1,0,neutral_W1,w,b,False,2860,3,11288,testPhase
2,0,neutral_Z0,z,b,False,4009,3,11288,testPhase
3,0,neutral_W6,w,a,False,1365,3,11288,testPhase
4,0,neutral_A0,a,a,True,2724,3,11288,testPhase
5,0,neutral_X5,x,a,False,933,3,11288,testPhase
6,0,neutral_X4,x,a,False,1691,3,11288,testPhase
7,0,neutral_W7,w,b,False,1467,3,11288,testPhase
8,0,neutral_X1,x,a,False,1575,3,11288,testPhase
9,0,neutral_W3,w,b,False,1217,3,11288,testPhase
10,0,neutral_W2,w,a,False,2481,3,11288,testPhase
11,0,neutral_Y2,y,b,False,1478,3,11288,testPhase
12,0,neutral_Z8,z,a,False,1606,3,11288,testPhase
13,0,neutral_A3,a,a,True,2165,3,11288,testPhase
14,0,neutral_B0,b,b,True,965,3,11288,testPhase
15,0,neutral_Y4,y,b,False,1093,3,11288,testPhase
16,0,neutral_B2,b,b,True,2428,3,11288,testPhase
17,0,neutral_Y5,y,a,False,1198,3,11288,testPhase
18,0,neutral_W4,w,a,False,2030,3,11288,testPhase
19,0,neutral_X0,x,a,False,974,3,11288,testPhase
20,0,neutral_B1,b,b,True,998,3,11288,testPhase
21,0,neutral_W5,w,b,False,1422,3,11288,testPhase
22,0,neutral_Y3,y,a,False,926,3,11288,testPhase
23,0,neutral_Y7,y,a,False,3513,3,11288,testPhase
24,0,neutral_X2,x,a,False,967,3,11288,testPhase
25,0,neutral_Z3,z,a,False,5714,3,11288,testPhase
26,0,neutral_Z7,z,a,False,1469,3,11288,testPhase
27,0,neutral_Y6,y,b,False,822,3,11288,testPhase
28,0,neutral_W8,w,a,False,909,3,11288,testPhase
29,0,neutral_Y0,y,b,False,838,3,11288,testPhase
30,0,neutral_Z4,z,a,False,1300,3,11288,testPhase
31,0,neutral_Z2,z,a,False,983,3,11288,testPhase
32,0,neutral_W0,w,b,False,950,3,11288,testPhase
33,0,neutral_X3,x,a,False,860,3,11288,testPhase
34,0,neutral_A1,a,a,True,915,3,11288,testPhase
35,0,neutral_Z6,z,a,False,3137,3,11288,testPhase
36,0,neutral_X7,x,a,False,1023,3,11288,testPhase
37,0,neutral_Y8,y,b,False,713,3,11288,testPhase
38,0,neutral_A2,a,a,True,664,3,11288,testPhase
39,0,neutral_Y1,y,a,False,1727,3,11288,testPhase
40,0,neutral_B3,b,b,True,3164,3,11288,testPhase
41,0,neutral_X8,x,a,False,739,3,11288,testPhase
42,0,neutral_Z5,z,b,False,616,3,11288,testPhase
43,0,neutral_Z1,z,a,False,678,3,11288,testPhase
0,0,neutral_B2,b,b,True,2723,3,11289,trainPhase
1,0,neutral_B1,b,b,True,1861,3,11289,trainPhase
2,0,neutral_A3,a,b,False,2086,3,11289,trainPhase
3,0,neutral_A2,a,a,True,3285,3,11289,trainPhase
4,0,neutral_B0,b,b,True,1357,3,11289,trainPhase
5,0,neutral_B3,b,b,True,1278,3,11289,trainPhase
6,0,neutral_A1,a,a,True,2070,3,11289,trainPhase
7,0,neutral_A0,a,a,True,1665,3,11289,trainPhase
0,1,neutral_B2,b,b,True,1342,3,11289,trainPhase
1,1,neutral_B0,b,b,True,1460,3,11289,trainPhase
2,1,neutral_A1,a,a,True,1053,3,11289,trainPhase
3,1,neutral_B3,b,b,True,1362,3,11289,trainPhase
4,1,neutral_A3,a,a,True,1438,3,11289,trainPhase
5,1,neutral_A0,a,a,True,1633,3,11289,trainPhase
6,1,neutral_A2,a,a,True,1270,3,11289,trainPhase
7,1,neutral_B1,b,b,True,1006,3,11289,trainPhase
0,2,neutral_B3,b,b,True,1189,3,11289,trainPhase
1,2,neutral_B1,b,b,True,1283,3,11289,trainPhase
0,0,neutral_X5,x,a,False,1364,3,11289,subTestPhase
1,0,neutral_X0,x,a,False,2085,3,11289,subTestPhase
2,0,neutral_B3,b,b,True,1811,3,11289,subTestPhase
3,0,neutral_A2,a,a,True,1989,3,11289,subTestPhase
4,0,neutral_X7,x,a,False,1013,3,11289,subTestPhase
5,0,neutral_A0,a,a,True,966,3,11289,subTestPhase
6,0,neutral_A1,a,a,True,1127,3,11289,subTestPhase
7,0,neutral_X8,x,a,False,837,3,11289,subTestPhase
8,0,neutral_A3,a,a,True,1102,3,11289,subTestPhase
9,0,neutral_X1,x,a,False,2145,3,11289,subTestPhase
10,0,neutral_X3,x,a,False,2168,3,11289,subTestPhase
11,0,neutral_B2,b,b,True,893,3,11289,subTestPhase
12,0,neutral_B1,b,b,True,805,3,11289,subTestPhase
13,0,neutral_X4,x,a,False,845,3,11289,subTestPhase
14,0,neutral_X2,x,a,False,907,3,11289,subTestPhase
15,0,neutral_X6,x,a,False,2589,3,11289,subTestPhase
16,0,neutral_B0,b,b,True,1306,3,11289,subTestPhase
0,0,neutral_A2,a,a,True,1707,3,11289,testPhase
1,0,neutral_W3,w,b,False,1269,3,11289,testPhase
2,0,neutral_Z2,z,b,False,4724,3,11289,testPhase
3,0,neutral_W7,w,a,False,1535,3,11289,testPhase
4,0,neutral_X0,x,a,False,1861,3,11289,testPhase
5,0,neutral_X2,x,a,False,743,3,11289,testPhase
6,0,neutral_A0,a,a,True,1045,3,11289,testPhase
7,0,neutral_Y5,y,b,False,1042,3,11289,testPhase
8,0,neutral_Z8,z,a,False,3242,3,11289,testPhase
9,0,neutral_B1,b,b,True,1625,3,11289,testPhase
10,0,neutral_B2,b,b,True,1262,3,11289,testPhase
11,0,neutral_X5,x,a,False,1286,3,11289,testPhase
12,0,neutral_W6,w,a,False,1541,3,11289,testPhase
13,0,neutral_W2,w,a,False,887,3,11289,testPhase
14,0,neutral_X1,x,a,False,938,3,11289,testPhase
15,0,neutral_X6,x,a,False,1699,3,11289,testPhase
16,0,neutral_W4,w,a,False,1880,3,11289,testPhase
17,0,neutral_Y4,y,b,False,1076,3,11289,testPhase
18,0,neutral_X3,x,a,False,3287,3,11289,testPhase
19,0,neutral_W1,w,a,False,989,3,11289,testPhase
20,0,neutral_Z1,z,b,False,2942,3,11289,testPhase
21,0,neutral_W5,w,a,False,1143,3,11289,testPhase
22,0,neutral_A3,a,a,True,1883,3,11289,testPhase
23,0,neutral_W0,w,a,False,3541,3,11289,testPhase
24,0,neutral_Y7,y,b,False,1232,3,11289,testPhase
25,0,neutral_Z0,z,b,False,1398,3,11289,testPhase
26,0,neutral_B0,b,a,False,1246,3,11289,testPhase
27,0,neutral_Z6,z,b,False,2123,3,11289,testPhase
28,0,neutral_Y1,y,b,False,1086,3,11289,testPhase
29,0,neutral_A1,a,a,True,1824,3,11289,testPhase
30,0,neutral_X7,x,a,False,1045,3,11289,testPhase
31,0,neutral_X8,x,a,False,893,3,11289,testPhase
32,0,neutral_Y2,y,b,False,1652,3,11289,testPhase
33,0,neutral_Z5,z,b,False,1324,3,11289,testPhase
34,0,neutral_W8,w,a,False,1126,3,11289,testPhase
35,0,neutral_Y3,y,b,False,1108,3,11289,testPhase
36,0,neutral_Z7,z,b,False,2454,3,11289,testPhase
37,0,neutral_Z4,z,b,False,1105,3,11289,testPhase
38,0,neutral_X4,x,a,False,995,3,11289,testPhase
39,0,neutral_Z3,z,b,False,2290,3,11289,testPhase
40,0,neutral_B3,b,a,False,1087,3,11289,testPhase
41,0,neutral_Y8,y,b,False,2138,3,11289,testPhase
42,0,neutral_Y0,y,b,False,1030,3,11289,testPhase
43,0,neutral_Y6,y,b,False,947,3,11289,testPhase
0,0,neutral_A3,a,a,True,2538,3,11290,trainPhase
1,0,neutral_B2,b,a,False,1548,3,11290,trainPhase
2,0,neutral_B1,b,b,True,1161,3,11290,trainPhase
3,0,neutral_A1,a,b,False,1754,3,11290,trainPhase
4,0,neutral_A0,a,a,True,1275,3,11290,trainPhase
5,0,neutral_B0,b,b,True,1903,3,11290,trainPhase
6,0,neutral_B3,b,b,True,1108,3,11290,trainPhase
7,0,neutral_A2,a,a,True,1428,3,11290,trainPhase
0,1,neutral_B0,b,b,True,977,3,11290,trainPhase
1,1,neutral_A3,a,a,True,1052,3,11290,trainPhase
2,1,neutral_A2,a,a,True,1448,3,11290,trainPhase
3,1,neutral_B1,b,b,True,1157,3,11290,trainPhase
4,1,neutral_B3,b,b,True,931,3,11290,trainPhase
5,1,neutral_A1,a,b,False,990,3,11290,trainPhase
6,1,neutral_B2,b,b,True,1381,3,11290,trainPhase
7,1,neutral_A0,a,a,True,1206,3,11290,trainPhase
0,2,neutral_A3,a,a,True,1000,3,11290,trainPhase
1,2,neutral_B3,b,b,True,1178,3,11290,trainPhase
2,2,neutral_A2,a,a,True,797,3,11290,trainPhase
3,2,neutral_A1,a,a,True,1142,3,11290,trainPhase
4,2,neutral_B1,b,b,True,851,3,11290,trainPhase
5,2,neutral_B0,b,b,True,681,3,11290,trainPhase
6,2,neutral_A0,a,a,True,925,3,11290,trainPhase
7,2,neutral_B2,b,a,False,1432,3,11290,trainPhase
0,3,neutral_B1,b,b,True,598,3,11290,trainPhase
1,3,neutral_A0,a,a,True,1461,3,11290,trainPhase
2,3,neutral_B0,b,b,True,1411,3,11290,trainPhase
3,3,neutral_A3,a,a,True,719,3,11290,trainPhase
4,3,neutral_A1,a,a,True,1235,3,11290,trainPhase
5,3,neutral_B3,b,b,True,1316,3,11290,trainPhase
6,3,neutral_B2,b,b,True,1014,3,11290,trainPhase
7,3,neutral_A2,a,a,True,782,3,11290,trainPhase
0,4,neutral_A0,a,a,True,946,3,11290,trainPhase
1,4,neutral_B3,b,b,True,1958,3,11290,trainPhase
2,4,neutral_A3,a,a,True,719,3,11290,trainPhase
3,4,neutral_B1,b,b,True,1038,3,11290,trainPhase
4,4,neutral_B0,b,b,True,813,3,11290,trainPhase
5,4,neutral_B2,b,b,True,630,3,11290,trainPhase
6,4,neutral_A1,a,a,True,966,3,11290,trainPhase
0,0,neutral_X1,x,a,False,1471,3,11290,subTestPhase
1,0,neutral_A2,a,a,True,1464,3,11290,subTestPhase
2,0,neutral_B2,b,b,True,953,3,11290,subTestPhase
3,0,neutral_X3,x,a,False,884,3,11290,subTestPhase
4,0,neutral_X8,x,a,False,918,3,11290,subTestPhase
5,0,neutral_B1,b,b,True,869,3,11290,subTestPhase
6,0,neutral_X2,x,a,False,1299,3,11290,subTestPhase
7,0,neutral_A3,a,a,True,1093,3,11290,subTestPhase
8,0,neutral_A0,a,a,True,1573,3,11290,subTestPhase
9,0,neutral_X4,x,a,False,833,3,11290,subTestPhase
10,0,neutral_X7,x,a,False,952,3,11290,subTestPhase
11,0,neutral_X6,x,a,False,742,3,11290,subTestPhase
12,0,neutral_B3,b,b,True,1366,3,11290,subTestPhase
13,0,neutral_A1,a,a,True,932,3,11290,subTestPhase
14,0,neutral_X5,x,a,False,717,3,11290,subTestPhase
15,0,neutral_X0,x,a,False,838,3,11290,subTestPhase
16,0,neutral_B0,b,b,True,1263,3,11290,subTestPhase
0,0,neutral_W0,w,a,False,2252,3,11290,testPhase
1,0,neutral_W7,w,a,False,796,3,11290,testPhase
2,0,neutral_W5,w,a,False,801,3,11290,testPhase
3,0,neutral_X0,x,a,False,870,3,11290,testPhase
4,0,neutral_B0,b,b,True,1242,3,11290,testPhase
5,0,neutral_Y4,y,b,False,926,3,11290,testPhase
6,0,neutral_X1,x,a,False,878,3,11290,testPhase
7,0,neutral_Y7,y,b,False,1157,3,11290,testPhase
8,0,neutral_X7,x,a,False,742,3,11290,testPhase
9,0,neutral_X5,x,a,False,829,3,11290,testPhase
10,0,neutral_W6,w,a,False,1917,3,11290,testPhase
11,0,neutral_X6,x,a,False,862,3,11290,testPhase
12,0,neutral_B1,b,b,True,988,3,11290,testPhase
13,0,neutral_A0,a,a,True,926,3,11290,testPhase
14,0,neutral_W2,w,a,False,1223,3,11290,testPhase
15,0,neutral_Z2,z,b,False,6705,3,11290,testPhase
16,0,neutral_Z5,z,a,False,1294,3,11290,testPhase
17,0,neutral_Z0,z,b,False,955,3,11290,testPhase
18,0,neutral_Z1,z,b,False,1012,3,11290,testPhase
19,0,neutral_Z8,z,a,False,678,3,11290,testPhase
20,0,neutral_Y8,y,b,False,1712,3,11290,testPhase
21,0,neutral_W1,w,a,False,885,3,11290,testPhase
22,0,neutral_A3,a,a,True,1626,3,11290,testPhase
23,0,neutral_X3,x,a,False,718,3,11290,testPhase
24,0,neutral_Y6,y,b,False,886,3,11290,testPhase
25,0,neutral_X8,x,a,False,1126,3,11290,testPhase
26,0,neutral_B2,b,b,True,1030,3,11290,testPhase
27,0,neutral_Z7,z,a,False,1127,3,11290,testPhase
28,0,neutral_Y1,y,b,False,781,3,11290,testPhase
29,0,neutral_X4,x,a,False,884,3,11290,testPhase
30,0,neutral_Z4,z,b,False,862,3,11290,testPhase
31,0,neutral_W4,w,b,False,1766,3,11290,testPhase
32,0,neutral_Y0,y,b,False,1270,3,11290,testPhase
33,0,neutral_W3,w,a,False,837,3,11290,testPhase
34,0,neutral_B3,b,b,True,1292,3,11290,testPhase
35,0,neutral_A2,a,a,True,2157,3,11290,testPhase
36,0,neutral_Z3,z,a,False,4334,3,11290,testPhase
37,0,neutral_X2,x,a,False,749,3,11290,testPhase
38,0,neutral_W8,w,a,False,2518,3,11290,testPhase
39,0,neutral_Y3,y,b,False,1301,3,11290,testPhase
40,0,neutral_A1,a,a,True,1282,3,11290,testPhase
41,0,neutral_Y5,y,b,False,1350,3,11290,testPhase
42,0,neutral_Z6,z,a,False,1684,3,11290,testPhase
43,0,neutral_Y2,y,b,False,856,3,11290,testPhase
0,0,neutral_A2,a,a,True,6744,3,11291,trainPhase
1,0,neutral_A1,a,a,True,3005,3,11291,trainPhase
2,0,neutral_A3,a,a,True,2775,3,11291,trainPhase
3,0,neutral_B3,b,a,False,2379,3,11291,trainPhase
4,0,neutral_B1,b,b,True,2745,3,11291,trainPhase
5,0,neutral_B0,b,b,True,1802,3,11291,trainPhase
6,0,neutral_A0,a,a,True,1675,3,11291,trainPhase
7,0,neutral_B2,b,b,True,1757,3,11291,trainPhase
0,1,neutral_A2,a,b,False,1992,3,11291,trainPhase
1,1,neutral_B3,b,b,True,2872,3,11291,trainPhase
2,1,neutral_B2,b,b,True,1524,3,11291,trainPhase
3,1,neutral_B1,b,b,True,1374,3,11291,trainPhase
4,1,neutral_A1,a,a,True,1196,3,11291,trainPhase
5,1,neutral_A3,a,a,True,818,3,11291,trainPhase
6,1,neutral_A0,a,a,True,958,3,11291,trainPhase
7,1,neutral_B0,b,b,True,928,3,11291,trainPhase
0,2,neutral_A3,a,a,True,749,3,11291,trainPhase
1,2,neutral_A0,a,a,True,2133,3,11291,trainPhase
2,2,neutral_B3,b,b,True,1479,3,11291,trainPhase
3,2,neutral_B1,b,b,True,1489,3,11291,trainPhase
4,2,neutral_A1,a,a,True,2055,3,11291,trainPhase
5,2,neutral_A2,a,b,False,1546,3,11291,trainPhase
6,2,neutral_B0,b,b,True,2288,3,11291,trainPhase
7,2,neutral_B2,b,a,False,1902,3,11291,trainPhase
0,3,neutral_A2,a,a,True,1475,3,11291,trainPhase
1,3,neutral_B0,b,b,True,2496,3,11291,trainPhase
2,3,neutral_B3,b,b,True,938,3,11291,trainPhase
3,3,neutral_B1,b,b,True,1088,3,11291,trainPhase
4,3,neutral_A0,a,a,True,1053,3,11291,trainPhase
5,3,neutral_A3,a,a,True,1779,3,11291,trainPhase
6,3,neutral_B2,b,b,True,2227,3,11291,trainPhase
7,3,neutral_A1,a,a,True,2798,3,11291,trainPhase
0,4,neutral_A3,a,b,False,1102,3,11291,trainPhase
1,4,neutral_A1,a,a,True,1564,3,11291,trainPhase
2,4,neutral_A0,a,a,True,894,3,11291,trainPhase
3,4,neutral_A2,a,a,True,1358,3,11291,trainPhase
4,4,neutral_B2,b,b,True,1093,3,11291,trainPhase
5,4,neutral_B3,b,b,True,869,3,11291,trainPhase
6,4,neutral_B0,b,b,True,542,3,11291,trainPhase
7,4,neutral_B1,b,b,True,533,3,11291,trainPhase
0,5,neutral_A3,a,a,True,781,3,11291,trainPhase
1,5,neutral_B3,b,b,True,1006,3,11291,trainPhase
2,5,neutral_B1,b,b,True,765,3,11291,trainPhase
3,5,neutral_B2,b,b,True,678,3,11291,trainPhase
4,5,neutral_A0,a,a,True,739,3,11291,trainPhase
5,5,neutral_A2,a,a,True,2179,3,11291,trainPhase
6,5,neutral_A1,a,a,True,1245,3,11291,trainPhase
7,5,neutral_B0,b,b,True,1445,3,11291,trainPhase
0,0,neutral_B1,b,b,True,3961,3,11291,subTestPhase
1,0,neutral_X8,x,a,False,2890,3,11291,subTestPhase
2,0,neutral_B3,b,b,True,1609,3,11291,subTestPhase
3,0,neutral_X5,x,a,False,877,3,11291,subTestPhase
4,0,neutral_A0,a,a,True,626,3,11291,subTestPhase
5,0,neutral_X2,x,a,False,649,3,11291,subTestPhase
6,0,neutral_X4,x,a,False,530,3,11291,subTestPhase
7,0,neutral_A3,a,a,True,1470,3,11291,subTestPhase
8,0,neutral_B0,b,b,True,964,3,11291,subTestPhase
9,0,neutral_A1,a,a,True,1222,3,11291,subTestPhase
10,0,neutral_X1,x,a,False,622,3,11291,subTestPhase
11,0,neutral_A2,a,a,True,1916,3,11291,subTestPhase
12,0,neutral_B2,b,b,True,1375,3,11291,subTestPhase
13,0,neutral_X6,x,a,False,2173,3,11291,subTestPhase
14,0,neutral_X7,x,a,False,873,3,11291,subTestPhase
15,0,neutral_X0,x,a,False,693,3,11291,subTestPhase
16,0,neutral_X3,x,a,False,1552,3,11291,subTestPhase
0,0,neutral_Y5,y,b,False,2371,3,11291,testPhase
1,0,neutral_Y0,y,b,False,1084,3,11291,testPhase
2,0,neutral_X6,x,a,False,1099,3,11291,testPhase
3,0,neutral_Z8,z,a,False,1635,3,11291,testPhase
4,0,neutral_A2,a,a,True,1164,3,11291,testPhase
5,0,neutral_W1,w,a,False,1187,3,11291,testPhase
6,0,neutral_Z1,z,a,False,2653,3,11291,testPhase
7,0,neutral_X5,x,a,False,779,3,11291,testPhase
8,0,neutral_X4,x,a,False,622,3,11291,testPhase
9,0,neutral_Y7,y,b,False,1831,3,11291,testPhase
10,0,neutral_W0,w,a,False,1498,3,11291,testPhase
11,0,neutral_W8,w,a,False,1064,3,11291,testPhase
12,0,neutral_Z4,z,a,False,4430,3,11291,testPhase
13,0,neutral_X7,x,a,False,1141,3,11291,testPhase
14,0,neutral_Y3,y,b,False,3197,3,11291,testPhase
15,0,neutral_B3,b,b,True,10801,3,11291,testPhase
16,0,neutral_Z2,z,a,False,2132,3,11291,testPhase
17,0,neutral_X0,x,a,False,1196,3,11291,testPhase
18,0,neutral_Y4,y,b,False,924,3,11291,testPhase
19,0,neutral_Z0,z,a,False,2046,3,11291,testPhase
20,0,neutral_X3,x,a,False,2481,3,11291,testPhase
21,0,neutral_X1,x,a,False,582,3,11291,testPhase
22,0,neutral_A0,a,a,True,533,3,11291,testPhase
23,0,neutral_Y6,y,b,False,1230,3,11291,testPhase
24,0,neutral_W5,w,a,False,1101,3,11291,testPhase
25,0,neutral_Z3,z,a,False,1831,3,11291,testPhase
26,0,neutral_X8,x,a,False,7582,3,11291,testPhase
27,0,neutral_B0,b,b,True,1877,3,11291,testPhase
28,0,neutral_B2,b,b,True,1077,3,11291,testPhase
29,0,neutral_A1,a,a,True,955,3,11291,testPhase
30,0,neutral_A3,a,a,True,968,3,11291,testPhase
31,0,neutral_Y8,y,b,False,1148,3,11291,testPhase
32,0,neutral_W3,w,b,False,917,3,11291,testPhase
33,0,neutral_W2,w,a,False,702,3,11291,testPhase
34,0,neutral_W6,w,a,False,965,3,11291,testPhase
35,0,neutral_Z6,z,a,False,1396,3,11291,testPhase
36,0,neutral_B1,b,b,True,1918,3,11291,testPhase
37,0,neutral_W7,w,a,False,902,3,11291,testPhase
38,0,neutral_Y1,y,b,False,1958,3,11291,testPhase
39,0,neutral_W4,w,a,False,902,3,11291,testPhase
40,0,neutral_X2,x,a,False,539,3,11291,testPhase
41,0,neutral_Z5,z,a,False,1473,3,11291,testPhase
42,0,neutral_Z7,z,a,False,557,3,11291,testPhase
43,0,neutral_Y2,y,b,False,830,3,11291,testPhase
0,0,neutral_B2,b,a,False,3099,3,11292,trainPhase
1,0,neutral_B3,b,b,True,1509,3,11292,trainPhase
2,0,neutral_A2,a,b,False,1888,3,11292,trainPhase
3,0,neutral_A3,a,a,True,1129,3,11292,trainPhase
4,0,neutral_A1,a,b,False,2033,3,11292,trainPhase
5,0,neutral_B0,b,b,True,2738,3,11292,trainPhase
6,0,neutral_B1,b,b,True,4027,3,11292,trainPhase
7,0,neutral_A0,a,a,True,1106,3,11292,trainPhase
0,1,neutral_A2,a,b,False,1377,3,11292,trainPhase
1,1,neutral_A3,a,b,False,2106,3,11292,trainPhase
2,1,neutral_A1,a,a,True,1095,3,11292,trainPhase
3,1,neutral_B0,b,a,False,1885,3,11292,trainPhase
4,1,neutral_A0,a,a,True,4979,3,11292,trainPhase
5,1,neutral_B2,b,b,True,2925,3,11292,trainPhase
6,1,neutral_B1,b,b,True,3182,3,11292,trainPhase
7,1,neutral_B3,b,b,True,1576,3,11292,trainPhase
0,2,neutral_A1,a,a,True,1829,3,11292,trainPhase
1,2,neutral_B2,b,b,True,1355,3,11292,trainPhase
2,2,neutral_B3,b,b,True,1713,3,11292,trainPhase
3,2,neutral_B1,b,b,True,1109,3,11292,trainPhase
4,2,neutral_A2,a,b,False,5912,3,11292,trainPhase
5,2,neutral_A0,a,a,True,1973,3,11292,trainPhase
6,2,neutral_B0,b,b,True,1212,3,11292,trainPhase
7,2,neutral_A3,a,a,True,1195,3,11292,trainPhase
0,3,neutral_B1,b,b,True,2609,3,11292,trainPhase
1,3,neutral_B3,b,b,True,1561,3,11292,trainPhase
2,3,neutral_A2,a,b,False,1391,3,11292,trainPhase
3,3,neutral_B0,b,a,False,1859,3,11292,trainPhase
4,3,neutral_B2,b,b,True,730,3,11292,trainPhase
5,3,neutral_A3,a,a,True,1746,3,11292,trainPhase
6,3,neutral_A0,a,a,True,1557,3,11292,trainPhase
7,3,neutral_A1,a,a,True,3294,3,11292,trainPhase
0,4,neutral_B1,b,b,True,2851,3,11292,trainPhase
1,4,neutral_B2,b,b,True,1795,3,11292,trainPhase
2,4,neutral_A0,a,a,True,1223,3,11292,trainPhase
3,4,neutral_B3,b,b,True,1605,3,11292,trainPhase
4,4,neutral_A2,a,a,True,1756,3,11292,trainPhase
5,4,neutral_B0,b,b,True,1485,3,11292,trainPhase
6,4,neutral_A3,a,a,True,2345,3,11292,trainPhase
7,4,neutral_A1,a,a,True,1234,3,11292,trainPhase
0,5,neutral_B2,b,b,True,1203,3,11292,trainPhase
1,5,neutral_A3,a,a,True,1334,3,11292,trainPhase
2,5,neutral_B0,b,b,True,2293,3,11292,trainPhase
0,0,neutral_X6,x,a,False,2982,3,11292,subTestPhase
1,0,neutral_X7,x,a,False,3236,3,11292,subTestPhase
2,0,neutral_X3,x,a,False,1955,3,11292,subTestPhase
3,0,neutral_X4,x,a,False,1831,3,11292,subTestPhase
4,0,neutral_X0,x,a,False,2215,3,11292,subTestPhase
5,0,neutral_X2,x,a,False,1408,3,11292,subTestPhase
6,0,neutral_X8,x,a,False,1749,3,11292,subTestPhase
7,0,neutral_A0,a,a,True,1907,3,11292,subTestPhase
8,0,neutral_A1,a,a,True,1277,3,11292,subTestPhase
9,0,neutral_X5,x,a,False,1342,3,11292,subTestPhase
10,0,neutral_B0,b,b,True,1021,3,11292,subTestPhase
11,0,neutral_A3,a,a,True,1579,3,11292,subTestPhase
12,0,neutral_B1,b,b,True,935,3,11292,subTestPhase
13,0,neutral_X1,x,a,False,1141,3,11292,subTestPhase
14,0,neutral_A2,a,a,True,1021,3,11292,subTestPhase
15,0,neutral_B3,b,b,True,6289,3,11292,subTestPhase
16,0,neutral_B2,b,b,True,992,3,11292,subTestPhase
0,0,neutral_Z1,z,b,False,2262,3,11292,testPhase
1,0,neutral_X2,x,a,False,878,3,11292,testPhase
2,0,neutral_A1,a,a,True,1663,3,11292,testPhase
3,0,neutral_Y7,y,b,False,1099,3,11292,testPhase
4,0,neutral_X1,x,a,False,1827,3,11292,testPhase
5,0,neutral_Y5,y,b,False,1093,3,11292,testPhase
6,0,neutral_Y4,y,b,False,958,3,11292,testPhase
7,0,neutral_X5,x,a,False,1181,3,11292,testPhase
8,0,neutral_B2,b,b,True,1197,3,11292,testPhase
9,0,neutral_W1,w,b,False,6711,3,11292,testPhase
10,0,neutral_W2,w,a,False,1229,3,11292,testPhase
11,0,neutral_Z7,z,a,False,1565,3,11292,testPhase
12,0,neutral_A3,a,a,True,1045,3,11292,testPhase
13,0,neutral_Y3,y,b,False,6351,3,11292,testPhase
14,0,neutral_B0,b,a,False,2155,3,11292,testPhase
15,0,neutral_X8,x,a,False,1278,3,11292,testPhase
16,0,neutral_Z6,z,a,False,4984,3,11292,testPhase
17,0,neutral_Y8,y,b,False,3134,3,11292,testPhase
18,0,neutral_A0,a,a,True,916,3,11292,testPhase
19,0,neutral_Z0,z,a,False,2030,3,11292,testPhase
20,0,neutral_X3,x,a,False,879,3,11292,testPhase
21,0,neutral_W6,w,a,False,2233,3,11292,testPhase
22,0,neutral_Z4,z,a,False,1030,3,11292,testPhase
23,0,neutral_W4,w,b,False,4515,3,11292,testPhase
24,0,neutral_X0,x,a,False,3237,3,11292,testPhase
25,0,neutral_Z3,z,b,False,1870,3,11292,testPhase
26,0,neutral_Y1,y,b,False,1871,3,11292,testPhase
27,0,neutral_Z8,z,b,False,1564,3,11292,testPhase
28,0,neutral_A2,a,a,True,3016,3,11292,testPhase
29,0,neutral_B3,b,a,False,1836,3,11292,testPhase
30,0,neutral_X7,x,a,False,985,3,11292,testPhase
31,0,neutral_W3,w,a,False,1029,3,11292,testPhase
32,0,neutral_W5,w,a,False,951,3,11292,testPhase
33,0,neutral_Z2,z,a,False,1030,3,11292,testPhase
34,0,neutral_Y2,y,b,False,849,3,11292,testPhase
35,0,neutral_B1,b,b,True,692,3,11292,testPhase
36,0,neutral_Y0,y,b,False,1267,3,11292,testPhase
37,0,neutral_W8,w,a,False,953,3,11292,testPhase
38,0,neutral_X6,x,a,False,1037,3,11292,testPhase
39,0,neutral_X4,x,a,False,939,3,11292,testPhase
40,0,neutral_W0,w,a,False,795,3,11292,testPhase
41,0,neutral_Z5,z,b,False,1060,3,11292,testPhase
42,0,neutral_Y6,y,b,False,796,3,11292,testPhase
43,0,neutral_W7,w,a,False,969,3,11292,testPhase
0,0,neutral_A1,a,a,True,2014,3,11293,trainPhase
1,0,neutral_B2,b,a,False,2657,3,11293,trainPhase
2,0,neutral_B3,b,b,True,1618,3,11293,trainPhase
3,0,neutral_A3,a,b,False,1343,3,11293,trainPhase
4,0,neutral_A0,a,a,True,2086,3,11293,trainPhase
5,0,neutral_A2,a,a,True,1152,3,11293,trainPhase
6,0,neutral_B1,b,b,True,1371,3,11293,trainPhase
7,0,neutral_B0,b,b,True,2038,3,11293,trainPhase
0,1,neutral_B3,b,b,True,1342,3,11293,trainPhase
1,1,neutral_B0,b,b,True,987,3,11293,trainPhase
2,1,neutral_B1,b,b,True,1032,3,11293,trainPhase
3,1,neutral_A1,a,a,True,1181,3,11293,trainPhase
4,1,neutral_B2,b,b,True,1034,3,11293,trainPhase
5,1,neutral_A3,a,a,True,1350,3,11293,trainPhase
6,1,neutral_A2,a,a,True,1881,3,11293,trainPhase
7,1,neutral_A0,a,a,True,1414,3,11293,trainPhase
0,2,neutral_A1,a,a,True,1145,3,11293,trainPhase
1,2,neutral_A2,a,a,True,1223,3,11293,trainPhase
2,2,neutral_A3,a,a,True,1137,3,11293,trainPhase
0,0,neutral_X7,x,b,False,2244,3,11293,subTestPhase
1,0,neutral_B1,b,b,True,1606,3,11293,subTestPhase
2,0,neutral_X1,x,b,False,3246,3,11293,subTestPhase
3,0,neutral_A2,a,a,True,1678,3,11293,subTestPhase
4,0,neutral_X8,x,b,False,1856,3,11293,subTestPhase
5,0,neutral_A1,a,a,True,1670,3,11293,subTestPhase
6,0,neutral_X5,x,b,False,1886,3,11293,subTestPhase
7,0,neutral_X0,x,b,False,2606,3,11293,subTestPhase
8,0,neutral_X4,x,b,False,2263,3,11293,subTestPhase
9,0,neutral_A0,a,a,True,1489,3,11293,subTestPhase
10,0,neutral_X2,x,b,False,2109,3,11293,subTestPhase
11,0,neutral_B0,b,b,True,8429,3,11293,subTestPhase
12,0,neutral_X6,x,b,False,2893,3,11293,subTestPhase
13,0,neutral_X3,x,b,False,2668,3,11293,subTestPhase
14,0,neutral_A3,a,a,True,2024,3,11293,subTestPhase
15,0,neutral_B3,b,b,True,2950,3,11293,subTestPhase
16,0,neutral_B2,b,b,True,885,3,11293,subTestPhase
0,0,neutral_B3,b,b,True,1399,3,11293,testPhase
1,0,neutral_W8,w,a,False,1230,3,11293,testPhase
2,0,neutral_Y7,y,b,False,3408,3,11293,testPhase
3,0,neutral_Z4,z,a,False,1735,3,11293,testPhase
4,0,neutral_Y3,y,b,False,1700,3,11293,testPhase
5,0,neutral_Y8,y,b,False,2190,3,11293,testPhase
6,0,neutral_Y1,y,b,False,1085,3,11293,testPhase
7,0,neutral_W5,w,a,False,2102,3,11293,testPhase
8,0,neutral_B1,b,b,True,1917,3,11293,testPhase
9,0,neutral_X1,x,b,False,3669,3,11293,testPhase
10,0,neutral_W1,w,a,False,1606,3,11293,testPhase
11,0,neutral_Y2,y,b,False,1678,3,11293,testPhase
12,0,neutral_Y4,y,b,False,1262,3,11293,testPhase
13,0,neutral_B2,b,b,True,1394,3,11293,testPhase
14,0,neutral_Z1,z,a,False,3086,3,11293,testPhase
15,0,neutral_B0,b,b,True,2046,3,11293,testPhase
16,0,neutral_Y6,y,b,False,1717,3,11293,testPhase
17,0,neutral_X0,x,b,False,2446,3,11293,testPhase
18,0,neutral_Z7,z,a,False,2837,3,11293,testPhase
19,0,neutral_Z8,z,a,False,1194,3,11293,testPhase
20,0,neutral_Z6,z,a,False,815,3,11293,testPhase
21,0,neutral_Z2,z,a,False,2481,3,11293,testPhase
22,0,neutral_Y5,y,b,False,1121,3,11293,testPhase
23,0,neutral_W0,w,a,False,1204,3,11293,testPhase
24,0,neutral_X6,x,b,False,2193,3,11293,testPhase
25,0,neutral_Z0,z,a,False,2898,3,11293,testPhase
26,0,neutral_X7,x,b,False,1404,3,11293,testPhase
27,0,neutral_W4,w,a,False,1421,3,11293,testPhase
28,0,neutral_W3,w,a,False,798,3,11293,testPhase
29,0,neutral_A1,a,a,True,3255,3,11293,testPhase
30,0,neutral_Z5,z,a,False,2180,3,11293,testPhase
31,0,neutral_X5,x,b,False,2617,3,11293,testPhase
32,0,neutral_X3,x,a,False,3694,3,11293,testPhase
33,0,neutral_X8,x,b,False,4966,3,11293,testPhase
34,0,neutral_Y0,y,b,False,1494,3,11293,testPhase
35,0,neutral_X4,x,b,False,1550,3,11293,testPhase
36,0,neutral_W2,w,a,False,1502,3,11293,testPhase
37,0,neutral_A0,a,a,True,1534,3,11293,testPhase
38,0,neutral_W6,w,b,False,5074,3,11293,testPhase
39,0,neutral_W7,w,a,False,1998,3,11293,testPhase
40,0,neutral_A3,a,a,True,1552,3,11293,testPhase
41,0,neutral_Z3,z,a,False,1670,3,11293,testPhase
42,0,neutral_X2,x,b,False,2704,3,11293,testPhase
43,0,neutral_A2,a,a,True,5309,3,11293,testPhase
0,0,neutral_B0,b,a,False,4470,3,11294,trainPhase
1,0,neutral_A0,a,b,False,2406,3,11294,trainPhase
2,0,neutral_B3,b,b,True,3085,3,11294,trainPhase
3,0,neutral_A3,a,b,False,1837,3,11294,trainPhase
4,0,neutral_A2,a,b,False,1306,3,11294,trainPhase
5,0,neutral_B2,b,b,True,3333,3,11294,trainPhase
6,0,neutral_B1,b,b,True,3948,3,11294,trainPhase
7,0,neutral_A1,a,a,True,1093,3,11294,trainPhase
0,1,neutral_A0,a,a,True,1478,3,11294,trainPhase
1,1,neutral_B0,b,b,True,982,3,11294,trainPhase
2,1,neutral_B3,b,b,True,950,3,11294,trainPhase
3,1,neutral_B2,b,b,True,1102,3,11294,trainPhase
4,1,neutral_A2,a,a,True,1990,3,11294,trainPhase
5,1,neutral_A1,a,a,True,1400,3,11294,trainPhase
6,1,neutral_B1,b,b,True,894,3,11294,trainPhase
7,1,neutral_A3,a,a,True,805,3,11294,trainPhase
0,2,neutral_B2,b,b,True,924,3,11294,trainPhase
1,2,neutral_B1,b,b,True,1509,3,11294,trainPhase
2,2,neutral_A2,a,a,True,931,3,11294,trainPhase
3,2,neutral_B3,b,b,True,1131,3,11294,trainPhase
0,0,neutral_X6,x,a,False,1726,3,11294,subTestPhase
1,0,neutral_A3,a,a,True,1518,3,11294,subTestPhase
2,0,neutral_X0,x,a,False,2190,3,11294,subTestPhase
3,0,neutral_A0,a,a,True,798,3,11294,subTestPhase
4,0,neutral_B0,b,b,True,791,3,11294,subTestPhase
5,0,neutral_A1,a,a,True,870,3,11294,subTestPhase
6,0,neutral_X3,x,a,False,1670,3,11294,subTestPhase
7,0,neutral_X2,x,a,False,1237,3,11294,subTestPhase
8,0,neutral_X8,x,a,False,1628,3,11294,subTestPhase
9,0,neutral_X7,x,a,False,1089,3,11294,subTestPhase
10,0,neutral_X1,x,a,False,1528,3,11294,subTestPhase
11,0,neutral_B3,b,b,True,796,3,11294,subTestPhase
12,0,neutral_A2,a,a,True,866,3,11294,subTestPhase
13,0,neutral_B1,b,b,True,868,3,11294,subTestPhase
14,0,neutral_X5,x,a,False,901,3,11294,subTestPhase
15,0,neutral_B2,b,b,True,756,3,11294,subTestPhase
16,0,neutral_X4,x,a,False,897,3,11294,subTestPhase
0,0,neutral_Y0,y,a,False,5266,3,11294,testPhase
1,0,neutral_X0,x,a,False,2518,3,11294,testPhase
2,0,neutral_W5,w,a,False,1228,3,11294,testPhase
3,0,neutral_W6,w,a,False,1786,3,11294,testPhase
4,0,neutral_W4,w,a,False,940,3,11294,testPhase
5,0,neutral_X6,x,a,False,908,3,11294,testPhase
6,0,neutral_W7,w,a,False,1626,3,11294,testPhase
7,0,neutral_Z8,z,a,False,945,3,11294,testPhase
8,0,neutral_W1,w,a,False,2927,3,11294,testPhase
9,0,neutral_X2,x,a,False,5259,3,11294,testPhase
10,0,neutral_Y4,y,a,False,5586,3,11294,testPhase
11,0,neutral_Y7,y,b,False,3987,3,11294,testPhase
12,0,neutral_Z5,z,a,False,1057,3,11294,testPhase
13,0,neutral_X3,x,a,False,701,3,11294,testPhase
