trial,block,stimId,category,response,accuracy,rt,condition,id,phase
0,0,encourage_A3,a,a,True,2335,1,11118,trainPhase
1,0,encourage_B0,b,a,False,1584,1,11118,trainPhase
2,0,encourage_B3,b,b,True,1099,1,11118,trainPhase
3,0,encourage_B1,b,a,False,1141,1,11118,trainPhase
4,0,encourage_A0,a,a,True,3251,1,11118,trainPhase
5,0,encourage_A2,a,a,True,1254,1,11118,trainPhase
6,0,encourage_B2,b,b,True,1357,1,11118,trainPhase
7,0,encourage_A1,a,a,True,847,1,11118,trainPhase
0,1,encourage_B2,b,b,True,1135,1,11118,trainPhase
1,1,encourage_B0,b,b,True,2424,1,11118,trainPhase
2,1,encourage_B3,b,b,True,768,1,11118,trainPhase
3,1,encourage_A2,a,a,True,689,1,11118,trainPhase
4,1,encourage_A1,a,a,True,785,1,11118,trainPhase
5,1,encourage_A0,a,a,True,670,1,11118,trainPhase
6,1,encourage_A3,a,a,True,725,1,11118,trainPhase
7,1,encourage_B1,b,a,False,824,1,11118,trainPhase
0,2,encourage_B3,b,b,True,945,1,11118,trainPhase
1,2,encourage_A0,a,a,True,1378,1,11118,trainPhase
2,2,encourage_A3,a,a,True,1153,1,11118,trainPhase
3,2,encourage_A2,a,a,True,806,1,11118,trainPhase
4,2,encourage_B0,b,b,True,1244,1,11118,trainPhase
5,2,encourage_A1,a,a,True,1252,1,11118,trainPhase
6,2,encourage_B1,b,b,True,1050,1,11118,trainPhase
7,2,encourage_B2,b,b,True,768,1,11118,trainPhase
0,3,encourage_B2,b,b,True,687,1,11118,trainPhase
1,3,encourage_A3,a,a,True,811,1,11118,trainPhase
2,3,encourage_B1,b,b,True,1321,1,11118,trainPhase
3,3,encourage_B0,b,b,True,988,1,11118,trainPhase
4,3,encourage_A2,a,a,True,1062,1,11118,trainPhase
5,3,encourage_A0,a,a,True,1012,1,11118,trainPhase
6,3,encourage_B3,b,b,True,830,1,11118,trainPhase
0,0,encourage_A3,a,a,True,1158,1,11118,subTestPhase
1,0,encourage_X2,x,a,False,862,1,11118,subTestPhase
2,0,encourage_X1,x,a,False,1081,1,11118,subTestPhase
3,0,encourage_X4,x,a,False,796,1,11118,subTestPhase
4,0,encourage_B0,b,b,True,864,1,11118,subTestPhase
5,0,encourage_A1,a,a,True,872,1,11118,subTestPhase
6,0,encourage_X6,x,a,False,698,1,11118,subTestPhase
7,0,encourage_X3,x,a,False,716,1,11118,subTestPhase
8,0,encourage_B2,b,b,True,839,1,11118,subTestPhase
9,0,encourage_X0,x,a,False,894,1,11118,subTestPhase
10,0,encourage_X5,x,a,False,686,1,11118,subTestPhase
11,0,encourage_B3,b,b,True,782,1,11118,subTestPhase
12,0,encourage_X8,x,a,False,789,1,11118,subTestPhase
13,0,encourage_A2,a,a,True,949,1,11118,subTestPhase
14,0,encourage_A0,a,a,True,847,1,11118,subTestPhase
15,0,encourage_X7,x,a,False,790,1,11118,subTestPhase
16,0,encourage_B1,b,b,True,1184,1,11118,subTestPhase
0,0,encourage_X0,x,a,False,2031,1,11118,testPhase
1,0,encourage_W7,w,a,False,2041,1,11118,testPhase
2,0,encourage_Z8,z,a,False,1612,1,11118,testPhase
3,0,encourage_B2,b,b,True,1106,1,11118,testPhase
4,0,encourage_Z7,z,a,False,1971,1,11118,testPhase
5,0,encourage_X5,x,a,False,750,1,11118,testPhase
6,0,encourage_A0,a,a,True,1018,1,11118,testPhase
7,0,encourage_Y6,y,b,False,1260,1,11118,testPhase
8,0,encourage_Y8,y,b,False,793,1,11118,testPhase
9,0,encourage_Z6,z,a,False,1231,1,11118,testPhase
10,0,encourage_W2,w,a,False,1302,1,11118,testPhase
11,0,encourage_Y3,y,b,False,1382,1,11118,testPhase
12,0,encourage_B0,b,b,True,953,1,11118,testPhase
13,0,encourage_X3,x,a,False,987,1,11118,testPhase
14,0,encourage_W6,w,b,False,2911,1,11118,testPhase
15,0,encourage_X4,x,a,False,766,1,11118,testPhase
16,0,encourage_Y0,y,b,False,876,1,11118,testPhase
17,0,encourage_Y2,y,b,False,638,1,11118,testPhase
18,0,encourage_Z4,z,a,False,1774,1,11118,testPhase
19,0,encourage_Z1,z,a,False,926,1,11118,testPhase
20,0,encourage_Z3,z,a,False,1149,1,11118,testPhase
21,0,encourage_Y1,y,b,False,856,1,11118,testPhase
22,0,encourage_X1,x,a,False,697,1,11118,testPhase
23,0,encourage_Y5,y,b,False,918,1,11118,testPhase
24,0,encourage_X8,x,a,False,470,1,11118,testPhase
25,0,encourage_Y4,y,b,False,718,1,11118,testPhase
26,0,encourage_W3,w,b,False,2412,1,11118,testPhase
27,0,encourage_A1,a,a,True,790,1,11118,testPhase
28,0,encourage_W1,w,a,False,1454,1,11118,testPhase
29,0,encourage_A3,a,a,True,1599,1,11118,testPhase
30,0,encourage_X7,x,a,False,646,1,11118,testPhase
31,0,encourage_W0,w,a,False,1191,1,11118,testPhase
32,0,encourage_Y7,y,b,False,1033,1,11118,testPhase
33,0,encourage_X6,x,a,False,1510,1,11118,testPhase
34,0,encourage_Z5,z,a,False,1414,1,11118,testPhase
35,0,encourage_W8,w,a,False,1222,1,11118,testPhase
36,0,encourage_W4,w,a,False,1062,1,11118,testPhase
37,0,encourage_A2,a,a,True,1030,1,11118,testPhase
38,0,encourage_W5,w,a,False,1829,1,11118,testPhase
39,0,encourage_Z2,z,b,False,2206,1,11118,testPhase
40,0,encourage_B1,b,b,True,821,1,11118,testPhase
41,0,encourage_B3,b,b,True,642,1,11118,testPhase
42,0,encourage_X2,x,a,False,805,1,11118,testPhase
43,0,encourage_Z0,z,a,False,1179,1,11118,testPhase
0,0,discourage_A1,a,a,True,2500,2,11127,trainPhase
1,0,discourage_A2,a,a,True,2219,2,11127,trainPhase
2,0,discourage_B3,b,a,False,2636,2,11127,trainPhase
3,0,discourage_B0,b,b,True,1385,2,11127,trainPhase
4,0,discourage_A3,a,a,True,868,2,11127,trainPhase
5,0,discourage_A0,a,b,False,1514,2,11127,trainPhase
6,0,discourage_B1,b,b,True,1376,2,11127,trainPhase
7,0,discourage_B2,b,a,False,1930,2,11127,trainPhase
0,1,discourage_B0,b,b,True,1946,2,11127,trainPhase
1,1,discourage_B2,b,b,True,1409,2,11127,trainPhase
2,1,discourage_A1,a,a,True,1107,2,11127,trainPhase
3,1,discourage_A3,a,a,True,975,2,11127,trainPhase
4,1,discourage_B3,b,b,True,1805,2,11127,trainPhase
5,1,discourage_B1,b,b,True,1238,2,11127,trainPhase
6,1,discourage_A0,a,a,True,1317,2,11127,trainPhase
7,1,discourage_A2,a,a,True,1128,2,11127,trainPhase
0,2,discourage_A1,a,a,True,1048,2,11127,trainPhase
1,2,discourage_B1,b,b,True,1854,2,11127,trainPhase
2,2,discourage_A0,a,a,True,831,2,11127,trainPhase
3,2,discourage_A3,a,a,True,3757,2,11127,trainPhase
4,2,discourage_B3,b,b,True,3415,2,11127,trainPhase
5,2,discourage_B0,b,b,True,1092,2,11127,trainPhase
6,2,discourage_B2,b,b,True,1933,2,11127,trainPhase
0,0,discourage_X6,x,a,False,3090,2,11127,subTestPhase
1,0,discourage_X8,x,a,False,1157,2,11127,subTestPhase
2,0,discourage_B3,b,b,True,1457,2,11127,subTestPhase
3,0,discourage_X4,x,a,False,821,2,11127,subTestPhase
4,0,discourage_B2,b,b,True,819,2,11127,subTestPhase
5,0,discourage_X7,x,a,False,740,2,11127,subTestPhase
6,0,discourage_A3,a,a,True,812,2,11127,subTestPhase
7,0,discourage_A0,a,a,True,1382,2,11127,subTestPhase
8,0,discourage_A1,a,a,True,1221,2,11127,subTestPhase
9,0,discourage_A2,a,b,False,740,2,11127,subTestPhase
10,0,discourage_X1,x,a,False,1144,2,11127,subTestPhase
11,0,discourage_X3,x,a,False,585,2,11127,subTestPhase
12,0,discourage_X0,x,a,False,834,2,11127,subTestPhase
13,0,discourage_X5,x,a,False,1078,2,11127,subTestPhase
14,0,discourage_B1,b,b,True,823,2,11127,subTestPhase
15,0,discourage_X2,x,a,False,653,2,11127,subTestPhase
16,0,discourage_B0,b,b,True,546,2,11127,subTestPhase
0,0,discourage_Z2,z,a,False,4109,2,11127,testPhase
1,0,discourage_X4,x,a,False,719,2,11127,testPhase
2,0,discourage_W7,w,b,False,695,2,11127,testPhase
3,0,discourage_W0,w,a,False,2396,2,11127,testPhase
4,0,discourage_Z8,z,a,False,1030,2,11127,testPhase
5,0,discourage_Z7,z,a,False,776,2,11127,testPhase
6,0,discourage_Y0,y,b,False,963,2,11127,testPhase
7,0,discourage_Y7,y,b,False,582,2,11127,testPhase
8,0,discourage_W1,w,a,False,934,2,11127,testPhase
9,0,discourage_Y4,y,b,False,896,2,11127,testPhase
10,0,discourage_Z3,z,a,False,803,2,11127,testPhase
11,0,discourage_W6,w,a,False,1560,2,11127,testPhase
12,0,discourage_Y6,y,b,False,1282,2,11127,testPhase
13,0,discourage_X3,x,a,False,1085,2,11127,testPhase
14,0,discourage_X1,x,a,False,625,2,11127,testPhase
15,0,discourage_W4,w,a,False,586,2,11127,testPhase
16,0,discourage_Z6,z,a,False,1201,2,11127,testPhase
17,0,discourage_B1,b,b,True,1431,2,11127,testPhase
18,0,discourage_X7,x,a,False,686,2,11127,testPhase
19,0,discourage_Z4,z,a,False,1327,2,11127,testPhase
20,0,discourage_X8,x,a,False,641,2,11127,testPhase
21,0,discourage_W3,w,b,False,873,2,11127,testPhase
22,0,discourage_A0,a,a,True,1357,2,11127,testPhase
23,0,discourage_Z0,z,a,False,3123,2,11127,testPhase
24,0,discourage_B0,b,b,True,1237,2,11127,testPhase
25,0,discourage_Y1,y,b,False,675,2,11127,testPhase
26,0,discourage_X0,x,a,False,2153,2,11127,testPhase
27,0,discourage_X6,x,a,False,587,2,11127,testPhase
28,0,discourage_A3,a,a,True,543,2,11127,testPhase
29,0,discourage_W2,w,a,False,1093,2,11127,testPhase
30,0,discourage_A1,a,a,True,523,2,11127,testPhase
31,0,discourage_X2,x,a,False,533,2,11127,testPhase
32,0,discourage_A2,a,a,True,1558,2,11127,testPhase
33,0,discourage_B2,b,b,True,2279,2,11127,testPhase
34,0,discourage_W8,w,a,False,1068,2,11127,testPhase
35,0,discourage_Y8,y,b,False,864,2,11127,testPhase
36,0,discourage_Y2,y,b,False,1119,2,11127,testPhase
37,0,discourage_Y3,y,b,False,510,2,11127,testPhase
38,0,discourage_W5,w,a,False,790,2,11127,testPhase
39,0,discourage_Y5,y,b,False,601,2,11127,testPhase
40,0,discourage_X5,x,a,False,696,2,11127,testPhase
41,0,discourage_B3,b,a,False,1880,2,11127,testPhase
42,0,discourage_Z1,z,a,False,657,2,11127,testPhase
43,0,discourage_Z5,z,a,False,498,2,11127,testPhase
0,0,neutral_A0,a,a,True,3804,3,11225,trainPhase
1,0,neutral_A3,a,b,False,1209,3,11225,trainPhase
2,0,neutral_B0,b,a,False,910,3,11225,trainPhase
3,0,neutral_B3,b,b,True,2845,3,11225,trainPhase
4,0,neutral_A2,a,a,True,1101,3,11225,trainPhase
5,0,neutral_B1,b,b,True,669,3,11225,trainPhase
6,0,neutral_B2,b,b,True,1181,3,11225,trainPhase
7,0,neutral_A1,a,a,True,1149,3,11225,trainPhase
0,1,neutral_B2,b,b,True,742,3,11225,trainPhase
1,1,neutral_A3,a,a,True,1293,3,11225,trainPhase
2,1,neutral_B3,b,b,True,678,3,11225,trainPhase
3,1,neutral_B1,b,b,True,1252,3,11225,trainPhase
4,1,neutral_A2,a,a,True,1088,3,11225,trainPhase
5,1,neutral_B0,b,b,True,744,3,11225,trainPhase
6,1,neutral_A1,a,a,True,518,3,11225,trainPhase
7,1,neutral_A0,a,b,False,821,3,11225,trainPhase
0,2,neutral_A2,a,a,True,1158,3,11225,trainPhase
1,2,neutral_B1,b,b,True,613,3,11225,trainPhase
2,2,neutral_A0,a,a,True,766,3,11225,trainPhase
3,2,neutral_B0,b,a,False,966,3,11225,trainPhase
4,2,neutral_A3,a,a,True,798,3,11225,trainPhase
5,2,neutral_A1,a,b,False,806,3,11225,trainPhase
6,2,neutral_B3,b,a,False,642,3,11225,trainPhase
7,2,neutral_B2,b,b,True,1694,3,11225,trainPhase
0,3,neutral_A1,a,a,True,1030,3,11225,trainPhase
1,3,neutral_B0,b,b,True,1110,3,11225,trainPhase
2,3,neutral_B2,b,b,True,823,3,11225,trainPhase
3,3,neutral_A2,a,a,True,991,3,11225,trainPhase
4,3,neutral_B3,b,b,True,598,3,11225,trainPhase
5,3,neutral_B1,b,a,False,428,3,11225,trainPhase
6,3,neutral_A0,a,a,True,1034,3,11225,trainPhase
7,3,neutral_A3,a,b,False,438,3,11225,trainPhase
0,4,neutral_A0,a,a,True,1121,3,11225,trainPhase
1,4,neutral_A1,a,a,True,1717,3,11225,trainPhase
2,4,neutral_B3,b,b,True,1853,3,11225,trainPhase
3,4,neutral_A2,a,a,True,741,3,11225,trainPhase
4,4,neutral_B1,b,b,True,846,3,11225,trainPhase
5,4,neutral_A3,a,a,True,526,3,11225,trainPhase
6,4,neutral_B0,b,b,True,1166,3,11225,trainPhase
7,4,neutral_B2,b,b,True,1212,3,11225,trainPhase
0,5,neutral_B0,b,b,True,845,3,11225,trainPhase
1,5,neutral_B2,b,b,True,559,3,11225,trainPhase
2,5,neutral_A3,a,a,True,1079,3,11225,trainPhase
3,5,neutral_B3,b,b,True,550,3,11225,trainPhase
4,5,neutral_A1,a,a,True,1029,3,11225,trainPhase
5,5,neutral_A2,a,a,True,701,3,11225,trainPhase
6,5,neutral_A0,a,a,True,1014,3,11225,trainPhase
0,0,neutral_A3,a,a,True,1395,3,11225,subTestPhase
1,0,neutral_X3,x,a,False,1149,3,11225,subTestPhase
2,0,neutral_X6,x,a,False,1014,3,11225,subTestPhase
3,0,neutral_B1,b,b,True,1909,3,11225,subTestPhase
4,0,neutral_A0,a,b,False,822,3,11225,subTestPhase
5,0,neutral_X0,x,b,False,502,3,11225,subTestPhase
6,0,neutral_A2,a,a,True,886,3,11225,subTestPhase
7,0,neutral_B2,b,a,False,494,3,11225,subTestPhase
8,0,neutral_X4,x,a,False,757,3,11225,subTestPhase
9,0,neutral_X5,x,a,False,734,3,11225,subTestPhase
10,0,neutral_A1,a,a,True,453,3,11225,subTestPhase
11,0,neutral_B3,b,b,True,1717,3,11225,subTestPhase
12,0,neutral_X1,x,a,False,910,3,11225,subTestPhase
13,0,neutral_X2,x,b,False,1790,3,11225,subTestPhase
14,0,neutral_B0,b,a,False,1429,3,11225,subTestPhase
15,0,neutral_X7,x,b,False,632,3,11225,subTestPhase
16,0,neutral_X8,x,b,False,623,3,11225,subTestPhase
0,0,neutral_Z6,z,a,False,1302,3,11225,testPhase
1,0,neutral_Z4,z,a,False,972,3,11225,testPhase
2,0,neutral_W2,w,b,False,1235,3,11225,testPhase
3,0,neutral_W5,w,b,False,1054,3,11225,testPhase
4,0,neutral_W8,w,b,False,444,3,11225,testPhase
5,0,neutral_Y0,y,b,False,348,3,11225,testPhase
6,0,neutral_Z0,z,a,False,1374,3,11225,testPhase
7,0,neutral_A0,a,a,True,1038,3,11225,testPhase
8,0,neutral_A1,a,a,True,1111,3,11225,testPhase
9,0,neutral_W4,w,b,False,943,3,11225,testPhase
10,0,neutral_X8,x,b,False,1486,3,11225,testPhase
11,0,neutral_X7,x,b,False,429,3,11225,testPhase
12,0,neutral_B3,b,a,False,1597,3,11225,testPhase
13,0,neutral_X1,x,a,False,1277,3,11225,testPhase
14,0,neutral_W1,w,a,False,1790,3,11225,testPhase
15,0,neutral_A2,a,a,True,1836,3,11225,testPhase
16,0,neutral_X2,x,b,False,2164,3,11225,testPhase
17,0,neutral_W7,w,b,False,2671,3,11225,testPhase
18,0,neutral_B2,b,a,False,661,3,11225,testPhase
19,0,neutral_Z2,z,a,False,1523,3,11225,testPhase
20,0,neutral_Z8,z,a,False,990,3,11225,testPhase
21,0,neutral_Z3,z,a,False,805,3,11225,testPhase
22,0,neutral_Y4,y,b,False,988,3,11225,testPhase
23,0,neutral_Y5,y,b,False,4350,3,11225,testPhase
24,0,neutral_W0,w,a,False,1438,3,11225,testPhase
25,0,neutral_Y6,y,b,False,985,3,11225,testPhase
26,0,neutral_Z5,z,a,False,1090,3,11225,testPhase
27,0,neutral_W6,w,b,False,621,3,11225,testPhase
28,0,neutral_Z7,z,a,False,1807,3,11225,testPhase
29,0,neutral_B0,b,a,False,1325,3,11225,testPhase
30,0,neutral_W3,w,a,False,967,3,11225,testPhase
31,0,neutral_Z1,z,b,False,1350,3,11225,testPhase
32,0,neutral_Y3,y,b,False,1889,3,11225,testPhase
33,0,neutral_X3,x,a,False,998,3,11225,testPhase
34,0,neutral_Y2,y,a,False,922,3,11225,testPhase
35,0,neutral_X0,x,a,False,3670,3,11225,testPhase
36,0,neutral_A3,a,a,True,1126,3,11225,testPhase
37,0,neutral_X6,x,a,False,750,3,11225,testPhase
38,0,neutral_B1,b,a,False,1470,3,11225,testPhase
39,0,neutral_Y1,y,b,False,998,3,11225,testPhase
40,0,neutral_X4,x,a,False,966,3,11225,testPhase
41,0,neutral_Y7,y,b,False,5398,3,11225,testPhase
42,0,neutral_X5,x,a,False,692,3,11225,testPhase
43,0,neutral_Y8,y,b,False,1390,3,11225,testPhase
0,0,neutral_B3,b,a,False,3347,3,11226,trainPhase
1,0,neutral_A3,a,b,False,1819,3,11226,trainPhase
2,0,neutral_A1,a,b,False,3963,3,11226,trainPhase
3,0,neutral_A0,a,b,False,3832,3,11226,trainPhase
4,0,neutral_B0,b,a,False,1976,3,11226,trainPhase
5,0,neutral_B1,b,b,True,1855,3,11226,trainPhase
6,0,neutral_B2,b,b,True,1864,3,11226,trainPhase
7,0,neutral_A2,a,a,True,1794,3,11226,trainPhase
0,1,neutral_A0,a,a,True,1505,3,11226,trainPhase
1,1,neutral_A1,a,a,True,1539,3,11226,trainPhase
2,1,neutral_B1,b,b,True,1567,3,11226,trainPhase
3,1,neutral_B0,b,b,True,1840,3,11226,trainPhase
4,1,neutral_B2,b,b,True,2761,3,11226,trainPhase
5,1,neutral_B3,b,b,True,2100,3,11226,trainPhase
6,1,neutral_A2,a,a,True,997,3,11226,trainPhase
7,1,neutral_A3,a,a,True,873,3,11226,trainPhase
0,2,neutral_A3,a,a,True,733,3,11226,trainPhase
1,2,neutral_B2,b,b,True,1631,3,11226,trainPhase
2,2,neutral_A2,a,a,True,771,3,11226,trainPhase
3,2,neutral_B0,b,b,True,1296,3,11226,trainPhase
0,0,neutral_X3,x,a,False,3814,3,11226,subTestPhase
1,0,neutral_X8,x,a,False,1577,3,11226,subTestPhase
2,0,neutral_B3,b,b,True,1535,3,11226,subTestPhase
3,0,neutral_A0,a,a,True,1344,3,11226,subTestPhase
4,0,neutral_B2,b,b,True,1073,3,11226,subTestPhase
5,0,neutral_B1,b,b,True,1065,3,11226,subTestPhase
6,0,neutral_A2,a,a,True,941,3,11226,subTestPhase
7,0,neutral_A3,a,a,True,774,3,11226,subTestPhase
8,0,neutral_A1,a,b,False,1289,3,11226,subTestPhase
9,0,neutral_X0,x,a,False,3660,3,11226,subTestPhase
10,0,neutral_X6,x,a,False,877,3,11226,subTestPhase
11,0,neutral_X2,x,a,False,969,3,11226,subTestPhase
12,0,neutral_X1,x,a,False,1058,3,11226,subTestPhase
13,0,neutral_X5,x,a,False,1060,3,11226,subTestPhase
14,0,neutral_B0,b,b,True,1063,3,11226,subTestPhase
15,0,neutral_X7,x,a,False,964,3,11226,subTestPhase
16,0,neutral_X4,x,a,False,1322,3,11226,subTestPhase
0,0,neutral_X6,x,a,False,1281,3,11226,testPhase
1,0,neutral_Y0,y,b,False,1114,3,11226,testPhase
2,0,neutral_Y6,y,b,False,858,3,11226,testPhase
3,0,neutral_W7,w,a,False,1345,3,11226,testPhase
4,0,neutral_Z8,z,a,False,1495,3,11226,testPhase
5,0,neutral_A0,a,a,True,1984,3,11226,testPhase
6,0,neutral_W6,w,a,False,4343,3,11226,testPhase
7,0,neutral_X4,x,a,False,1698,3,11226,testPhase
8,0,neutral_B1,b,b,True,1533,3,11226,testPhase
9,0,neutral_B0,b,b,True,1270,3,11226,testPhase
10,0,neutral_B3,b,a,False,2027,3,11226,testPhase
11,0,neutral_A1,a,a,True,1199,3,11226,testPhase
12,0,neutral_B2,b,b,True,2993,3,11226,testPhase
13,0,neutral_X8,x,a,False,892,3,11226,testPhase
14,0,neutral_W2,w,a,False,1689,3,11226,testPhase
15,0,neutral_W5,w,a,False,1232,3,11226,testPhase
16,0,neutral_Y3,y,b,False,2799,3,11226,testPhase
17,0,neutral_W4,w,a,False,1395,3,11226,testPhase
18,0,neutral_W8,w,a,False,844,3,11226,testPhase
19,0,neutral_Z2,z,a,False,1817,3,11226,testPhase
20,0,neutral_A3,a,a,True,1255,3,11226,testPhase
21,0,neutral_W1,w,a,False,1605,3,11226,testPhase
22,0,neutral_X7,x,a,False,1182,3,11226,testPhase
23,0,neutral_X2,x,a,False,1052,3,11226,testPhase
24,0,neutral_Z3,z,b,False,1558,3,11226,testPhase
25,0,neutral_Z1,z,a,False,3294,3,11226,testPhase
26,0,neutral_Z5,z,a,False,812,3,11226,testPhase
27,0,neutral_W0,w,a,False,1634,3,11226,testPhase
28,0,neutral_W3,w,a,False,1031,3,11226,testPhase
29,0,neutral_Y5,y,b,False,1030,3,11226,testPhase
30,0,neutral_Y1,y,b,False,1078,3,11226,testPhase
31,0,neutral_Y4,y,b,False,1109,3,11226,testPhase
32,0,neutral_Z4,z,a,False,1838,3,11226,testPhase
33,0,neutral_Y8,y,b,False,1002,3,11226,testPhase
34,0,neutral_X5,x,a,False,965,3,11226,testPhase
35,0,neutral_X1,x,a,False,923,3,11226,testPhase
36,0,neutral_A2,a,a,True,1408,3,11226,testPhase
37,0,neutral_Z6,z,a,False,1698,3,11226,testPhase
38,0,neutral_Z0,z,a,False,1053,3,11226,testPhase
39,0,neutral_X3,x,a,False,1003,3,11226,testPhase
40,0,neutral_Y2,y,b,False,1076,3,11226,testPhase
41,0,neutral_Z7,z,a,False,1675,3,11226,testPhase
42,0,neutral_Y7,y,b,False,1344,3,11226,testPhase
43,0,neutral_X0,x,a,False,979,3,11226,testPhase
0,0,discourage_A0,a,a,True,2707,2,11227,trainPhase
1,0,discourage_B0,b,a,False,2386,2,11227,trainPhase
2,0,discourage_B2,b,a,False,6796,2,11227,trainPhase
3,0,discourage_A1,a,a,True,1270,2,11227,trainPhase
4,0,discourage_A2,a,b,False,993,2,11227,trainPhase
5,0,discourage_B3,b,a,False,4872,2,11227,trainPhase
6,0,discourage_A3,a,b,False,2439,2,11227,trainPhase
7,0,discourage_B1,b,b,True,6998,2,11227,trainPhase
0,1,discourage_B0,b,b,True,3450,2,11227,trainPhase
1,1,discourage_B3,b,b,True,1667,2,11227,trainPhase
2,1,discourage_A1,a,b,False,1806,2,11227,trainPhase
3,1,discourage_A0,a,a,True,3568,2,11227,trainPhase
4,1,discourage_A2,a,a,True,891,2,11227,trainPhase
5,1,discourage_B1,b,a,False,890,2,11227,trainPhase
6,1,discourage_B2,b,b,True,2747,2,11227,trainPhase
7,1,discourage_A3,a,b,False,7827,2,11227,trainPhase
0,2,discourage_A1,a,a,True,2368,2,11227,trainPhase
1,2,discourage_B0,b,a,False,2181,2,11227,trainPhase
2,2,discourage_B3,b,a,False,10938,2,11227,trainPhase
3,2,discourage_A0,a,b,False,3326,2,11227,trainPhase
4,2,discourage_A2,a,a,True,1916,2,11227,trainPhase
5,2,discourage_A3,a,b,False,682,2,11227,trainPhase
6,2,discourage_B1,b,a,False,476,2,11227,trainPhase
7,2,discourage_B2,b,b,True,1536,2,11227,trainPhase
0,3,discourage_A0,a,b,False,382,2,11227,trainPhase
1,3,discourage_B2,b,b,True,1274,2,11227,trainPhase
2,3,discourage_B3,b,a,False,517,2,11227,trainPhase
3,3,discourage_B1,b,b,True,622,2,11227,trainPhase
4,3,discourage_A2,a,b,False,533,2,11227,trainPhase
5,3,discourage_B0,b,a,False,2430,2,11227,trainPhase
6,3,discourage_A1,a,a,True,2151,2,11227,trainPhase
7,3,discourage_A3,a,a,True,5864,2,11227,trainPhase
0,4,discourage_B1,b,b,True,1454,2,11227,trainPhase
1,4,discourage_B0,b,b,True,1340,2,11227,trainPhase
2,4,discourage_A1,a,a,True,849,2,11227,trainPhase
3,4,discourage_A0,a,a,True,1522,2,11227,trainPhase
4,4,discourage_B2,b,a,False,795,2,11227,trainPhase
5,4,discourage_B3,b,a,False,1064,2,11227,trainPhase
6,4,discourage_A3,a,a,True,970,2,11227,trainPhase
7,4,discourage_A2,a,a,True,2354,2,11227,trainPhase
0,5,discourage_A3,a,a,True,1071,2,11227,trainPhase
1,5,discourage_B1,b,b,True,1011,2,11227,trainPhase
2,5,discourage_A1,a,a,True,1130,2,11227,trainPhase
3,5,discourage_A2,a,a,True,1054,2,11227,trainPhase
4,5,discourage_B3,b,b,True,1164,2,11227,trainPhase
5,5,discourage_B0,b,b,True,1369,2,11227,trainPhase
6,5,discourage_A0,a,a,True,1469,2,11227,trainPhase
7,5,discourage_B2,b,a,False,824,2,11227,trainPhase
0,6,discourage_B3,b,a,False,2165,2,11227,trainPhase
1,6,discourage_B0,b,b,True,1459,2,11227,trainPhase
2,6,discourage_A1,a,b,False,1336,2,11227,trainPhase
3,6,discourage_B1,b,b,True,920,2,11227,trainPhase
4,6,discourage_A2,a,a,True,715,2,11227,trainPhase
5,6,discourage_A0,a,b,False,1358,2,11227,trainPhase
6,6,discourage_A3,a,a,True,633,2,11227,trainPhase
7,6,discourage_B2,b,b,True,3506,2,11227,trainPhase
0,7,discourage_A3,a,a,True,593,2,11227,trainPhase
1,7,discourage_A2,a,a,True,718,2,11227,trainPhase
2,7,discourage_B0,b,b,True,787,2,11227,trainPhase
3,7,discourage_B3,b,a,False,1309,2,11227,trainPhase
4,7,discourage_A0,a,b,False,1135,2,11227,trainPhase
5,7,discourage_B1,b,b,True,1653,2,11227,trainPhase
6,7,discourage_B2,b,a,False,713,2,11227,trainPhase
7,7,discourage_A1,a,a,True,850,2,11227,trainPhase
0,8,discourage_A0,a,a,True,1088,2,11227,trainPhase
1,8,discourage_B3,b,a,False,687,2,11227,trainPhase
2,8,discourage_B1,b,a,False,1380,2,11227,trainPhase
3,8,discourage_B2,b,a,False,1214,2,11227,trainPhase
4,8,discourage_A2,a,a,True,1186,2,11227,trainPhase
5,8,discourage_A3,a,a,True,956,2,11227,trainPhase
6,8,discourage_A1,a,b,False,1013,2,11227,trainPhase
7,8,discourage_B0,b,b,True,684,2,11227,trainPhase
0,9,discourage_B3,b,a,False,901,2,11227,trainPhase
1,9,discourage_A2,a,a,True,1486,2,11227,trainPhase
2,9,discourage_A0,a,b,False,2359,2,11227,trainPhase
3,9,discourage_B1,b,b,True,881,2,11227,trainPhase
4,9,discourage_A3,a,a,True,682,2,11227,trainPhase
5,9,discourage_B2,b,a,False,1023,2,11227,trainPhase
6,9,discourage_B0,b,a,False,1419,2,11227,trainPhase
7,9,discourage_A1,a,b,False,910,2,11227,trainPhase
0,10,discourage_B1,b,b,True,934,2,11227,trainPhase
1,10,discourage_A1,a,a,True,819,2,11227,trainPhase
2,10,discourage_B0,b,a,False,785,2,11227,trainPhase
3,10,discourage_A0,a,b,False,934,2,11227,trainPhase
4,10,discourage_B2,b,a,False,1507,2,11227,trainPhase
5,10,discourage_A2,a,a,True,1058,2,11227,trainPhase
6,10,discourage_B3,b,a,False,1131,2,11227,trainPhase
7,10,discourage_A3,a,a,True,1086,2,11227,trainPhase
0,11,discourage_B0,b,b,True,1250,2,11227,trainPhase
1,11,discourage_A0,a,a,True,1423,2,11227,trainPhase
2,11,discourage_B1,b,a,False,1943,2,11227,trainPhase
3,11,discourage_A3,a,a,True,1136,2,11227,trainPhase
4,11,discourage_A1,a,b,False,1357,2,11227,trainPhase
5,11,discourage_B2,b,b,True,1695,2,11227,trainPhase
6,11,discourage_A2,a,a,True,728,2,11227,trainPhase
7,11,discourage_B3,b,a,False,968,2,11227,trainPhase
0,0,discourage_B3,b,a,False,3586,2,11227,subTestPhase
1,0,discourage_A1,a,a,True,4289,2,11227,subTestPhase
2,0,discourage_X3,x,a,False,1077,2,11227,subTestPhase
3,0,discourage_A0,a,b,False,805,2,11227,subTestPhase
4,0,discourage_B2,b,b,True,1312,2,11227,subTestPhase
5,0,discourage_X1,x,a,False,904,2,11227,subTestPhase
6,0,discourage_X4,x,a,False,965,2,11227,subTestPhase
7,0,discourage_A2,a,a,True,2890,2,11227,subTestPhase
8,0,discourage_X2,x,a,False,1104,2,11227,subTestPhase
9,0,discourage_X7,x,a,False,968,2,11227,subTestPhase
10,0,discourage_B1,b,b,True,982,2,11227,subTestPhase
11,0,discourage_B0,b,b,True,825,2,11227,subTestPhase
12,0,discourage_X8,x,a,False,1395,2,11227,subTestPhase
13,0,discourage_X5,x,a,False,905,2,11227,subTestPhase
14,0,discourage_A3,a,a,True,717,2,11227,subTestPhase
15,0,discourage_X0,x,a,False,627,2,11227,subTestPhase
16,0,discourage_X6,x,a,False,877,2,11227,subTestPhase
0,0,discourage_Z8,z,a,False,1278,2,11227,testPhase
1,0,discourage_B2,b,b,True,884,2,11227,testPhase
2,0,discourage_Z0,z,a,False,1152,2,11227,testPhase
3,0,discourage_Y3,y,b,False,1155,2,11227,testPhase
4,0,discourage_Y7,y,b,False,836,2,11227,testPhase
5,0,discourage_Y1,y,b,False,681,2,11227,testPhase
6,0,discourage_Y0,y,b,False,662,2,11227,testPhase
7,0,discourage_A1,a,a,True,1246,2,11227,testPhase
8,0,discourage_X1,x,a,False,656,2,11227,testPhase
9,0,discourage_W4,w,b,False,935,2,11227,testPhase
10,0,discourage_X7,x,a,False,844,2,11227,testPhase
11,0,discourage_X0,x,a,False,683,2,11227,testPhase
12,0,discourage_B3,b,a,False,2882,2,11227,testPhase
13,0,discourage_Y8,y,b,False,790,2,11227,testPhase
14,0,discourage_A3,a,a,True,662,2,11227,testPhase
15,0,discourage_B1,b,b,True,735,2,11227,testPhase
16,0,discourage_A0,a,b,False,865,2,11227,testPhase
17,0,discourage_A2,a,a,True,823,2,11227,testPhase
18,0,discourage_Z2,z,a,False,1217,2,11227,testPhase
19,0,discourage_W6,w,b,False,896,2,11227,testPhase
20,0,discourage_W0,w,b,False,790,2,11227,testPhase
21,0,discourage_Y2,y,b,False,797,2,11227,testPhase
22,0,discourage_X2,x,a,False,767,2,11227,testPhase
23,0,discourage_X8,x,a,False,706,2,11227,testPhase
24,0,discourage_Z5,z,a,False,975,2,11227,testPhase
25,0,discourage_Z7,z,a,False,722,2,11227,testPhase
26,0,discourage_X3,x,a,False,519,2,11227,testPhase
27,0,discourage_Z1,z,a,False,566,2,11227,testPhase
28,0,discourage_Z3,z,a,False,646,2,11227,testPhase
29,0,discourage_Y6,y,b,False,1008,2,11227,testPhase
30,0,discourage_X5,x,a,False,781,2,11227,testPhase
31,0,discourage_Z4,z,a,False,1220,2,11227,testPhase
32,0,discourage_B0,b,a,False,461,2,11227,testPhase
33,0,discourage_W1,w,b,False,875,2,11227,testPhase
34,0,discourage_Y4,y,b,False,1431,2,11227,testPhase
35,0,discourage_W3,w,b,False,1444,2,11227,testPhase
36,0,discourage_W7,w,b,False,746,2,11227,testPhase
37,0,discourage_Y5,y,b,False,972,2,11227,testPhase
38,0,discourage_W8,w,b,False,1379,2,11227,testPhase
39,0,discourage_W5,w,b,False,678,2,11227,testPhase
40,0,discourage_W2,w,b,False,687,2,11227,testPhase
41,0,discourage_X6,x,a,False,759,2,11227,testPhase
42,0,discourage_Z6,z,a,False,850,2,11227,testPhase
43,0,discourage_X4,x,a,False,566,2,11227,testPhase
0,0,neutral_A0,a,b,False,4551,3,11229,trainPhase
1,0,neutral_B3,b,a,False,2460,3,11229,trainPhase
2,0,neutral_B2,b,b,True,1577,3,11229,trainPhase
3,0,neutral_A1,a,a,True,1061,3,11229,trainPhase
4,0,neutral_B0,b,b,True,1339,3,11229,trainPhase
5,0,neutral_A3,a,b,False,2077,3,11229,trainPhase
6,0,neutral_A2,a,b,False,1323,3,11229,trainPhase
7,0,neutral_B1,b,b,True,1397,3,11229,trainPhase
0,1,neutral_B0,b,b,True,1184,3,11229,trainPhase
1,1,neutral_A2,a,a,True,1506,3,11229,trainPhase
2,1,neutral_B1,b,b,True,899,3,11229,trainPhase
3,1,neutral_B3,b,b,True,1344,3,11229,trainPhase
4,1,neutral_A0,a,a,True,1295,3,11229,trainPhase
5,1,neutral_A1,a,a,True,1333,3,11229,trainPhase
6,1,neutral_A3,a,a,True,1402,3,11229,trainPhase
7,1,neutral_B2,b,b,True,1258,3,11229,trainPhase
0,2,neutral_A3,a,a,True,1542,3,11229,trainPhase
1,2,neutral_A1,a,a,True,1351,3,11229,trainPhase
2,2,neutral_B0,b,b,True,1337,3,11229,trainPhase
3,2,neutral_A0,a,a,True,1023,3,11229,trainPhase
4,2,neutral_B2,b,b,True,2311,3,11229,trainPhase
5,2,neutral_B1,b,b,True,1593,3,11229,trainPhase
0,0,neutral_X6,x,a,False,1897,3,11229,subTestPhase
1,0,neutral_X7,x,a,False,1330,3,11229,subTestPhase
2,0,neutral_X1,x,a,False,1129,3,11229,subTestPhase
3,0,neutral_B0,b,b,True,954,3,11229,subTestPhase
4,0,neutral_X4,x,a,False,862,3,11229,subTestPhase
5,0,neutral_A1,a,a,True,1136,3,11229,subTestPhase
6,0,neutral_B1,b,b,True,1007,3,11229,subTestPhase
7,0,neutral_X0,x,a,False,1251,3,11229,subTestPhase
8,0,neutral_X8,x,a,False,943,3,11229,subTestPhase
9,0,neutral_X5,x,a,False,776,3,11229,subTestPhase
10,0,neutral_B3,b,b,True,1249,3,11229,subTestPhase
11,0,neutral_A3,a,a,True,1411,3,11229,subTestPhase
12,0,neutral_B2,b,b,True,1050,3,11229,subTestPhase
13,0,neutral_A2,a,a,True,960,3,11229,subTestPhase
14,0,neutral_A0,a,a,True,1127,3,11229,subTestPhase
15,0,neutral_X3,x,a,False,938,3,11229,subTestPhase
16,0,neutral_X2,x,a,False,1236,3,11229,subTestPhase
0,0,neutral_X1,x,a,False,1156,3,11229,testPhase
1,0,neutral_W6,w,b,False,938,3,11229,testPhase
2,0,neutral_X5,x,a,False,867,3,11229,testPhase
3,0,neutral_W4,w,b,False,889,3,11229,testPhase
4,0,neutral_X0,x,a,False,1269,3,11229,testPhase
5,0,neutral_Z1,z,a,False,995,3,11229,testPhase
6,0,neutral_Z8,z,a,False,794,3,11229,testPhase
7,0,neutral_X2,x,a,False,730,3,11229,testPhase
8,0,neutral_X3,x,a,False,705,3,11229,testPhase
9,0,neutral_B1,b,b,True,1128,3,11229,testPhase
10,0,neutral_Y4,y,b,False,1042,3,11229,testPhase
11,0,neutral_Y6,y,b,False,767,3,11229,testPhase
12,0,neutral_Z0,z,a,False,1821,3,11229,testPhase
13,0,neutral_Z7,z,a,False,795,3,11229,testPhase
14,0,neutral_Z3,z,a,False,1254,3,11229,testPhase
15,0,neutral_Y8,y,b,False,972,3,11229,testPhase
16,0,neutral_W0,w,b,False,823,3,11229,testPhase
17,0,neutral_W8,w,a,False,884,3,11229,testPhase
18,0,neutral_W1,w,a,False,954,3,11229,testPhase
19,0,neutral_W5,w,a,False,744,3,11229,testPhase
20,0,neutral_X8,x,a,False,952,3,11229,testPhase
21,0,neutral_B3,b,b,True,1333,3,11229,testPhase
22,0,neutral_Y1,y,b,False,1172,3,11229,testPhase
23,0,neutral_Z6,z,a,False,1162,3,11229,testPhase
24,0,neutral_Y0,y,b,False,1044,3,11229,testPhase
25,0,neutral_Z2,z,a,False,1287,3,11229,testPhase
26,0,neutral_A3,a,a,True,784,3,11229,testPhase
27,0,neutral_W2,w,a,False,1748,3,11229,testPhase
28,0,neutral_A2,a,a,True,957,3,11229,testPhase
29,0,neutral_X7,x,a,False,723,3,11229,testPhase
30,0,neutral_B0,b,b,True,1173,3,11229,testPhase
31,0,neutral_Z4,z,a,False,1047,3,11229,testPhase
32,0,neutral_Y3,y,b,False,2003,3,11229,testPhase
33,0,neutral_X4,x,a,False,991,3,11229,testPhase
34,0,neutral_A0,a,a,True,1504,3,11229,testPhase
35,0,neutral_Y2,y,b,False,1053,3,11229,testPhase
36,0,neutral_X6,x,a,False,1052,3,11229,testPhase
37,0,neutral_Z5,z,a,False,845,3,11229,testPhase
38,0,neutral_B2,b,a,False,744,3,11229,testPhase
39,0,neutral_W7,w,a,False,1727,3,11229,testPhase
40,0,neutral_Y5,y,b,False,1053,3,11229,testPhase
41,0,neutral_A1,a,a,True,1221,3,11229,testPhase
42,0,neutral_Y7,y,b,False,1340,3,11229,testPhase
43,0,neutral_W3,w,a,False,1329,3,11229,testPhase
0,0,neutral_B1,b,b,True,3708,3,11230,trainPhase
1,0,neutral_B0,b,b,True,1002,3,11230,trainPhase
2,0,neutral_B2,b,b,True,1029,3,11230,trainPhase
3,0,neutral_A2,a,b,False,1061,3,11230,trainPhase
4,0,neutral_B3,b,b,True,1094,3,11230,trainPhase
5,0,neutral_A0,a,b,False,1720,3,11230,trainPhase
6,0,neutral_A1,a,a,True,1832,3,11230,trainPhase
7,0,neutral_A3,a,a,True,3621,3,11230,trainPhase
0,1,neutral_B2,b,b,True,1782,3,11230,trainPhase
1,1,neutral_A3,a,a,True,2041,3,11230,trainPhase
2,1,neutral_B1,b,b,True,1460,3,11230,trainPhase
3,1,neutral_A1,a,b,False,1412,3,11230,trainPhase
4,1,neutral_B0,b,b,True,1798,3,11230,trainPhase
5,1,neutral_A0,a,a,True,1002,3,11230,trainPhase
6,1,neutral_A2,a,a,True,2917,3,11230,trainPhase
7,1,neutral_B3,b,b,True,3290,3,11230,trainPhase
0,2,neutral_A3,a,a,True,2085,3,11230,trainPhase
1,2,neutral_A0,a,a,True,1002,3,11230,trainPhase
2,2,neutral_B3,b,b,True,1232,3,11230,trainPhase
3,2,neutral_B2,b,b,True,857,3,11230,trainPhase
4,2,neutral_A2,a,a,True,1585,3,11230,trainPhase
5,2,neutral_A1,a,a,True,1316,3,11230,trainPhase
6,2,neutral_B0,b,b,True,1007,3,11230,trainPhase
7,2,neutral_B1,b,b,True,744,3,11230,trainPhase
0,3,neutral_B0,b,b,True,732,3,11230,trainPhase
1,3,neutral_A2,a,a,True,804,3,11230,trainPhase
2,3,neutral_A1,a,a,True,916,3,11230,trainPhase
0,0,neutral_X5,x,a,False,1337,3,11230,subTestPhase
1,0,neutral_A0,a,a,True,766,3,11230,subTestPhase
2,0,neutral_X6,x,a,False,2600,3,11230,subTestPhase
3,0,neutral_B0,b,b,True,1481,3,11230,subTestPhase
4,0,neutral_B2,b,b,True,872,3,11230,subTestPhase
5,0,neutral_X0,x,a,False,912,3,11230,subTestPhase
6,0,neutral_X1,x,a,False,683,3,11230,subTestPhase
7,0,neutral_X8,x,a,False,614,3,11230,subTestPhase
8,0,neutral_B1,b,b,True,1705,3,11230,subTestPhase
9,0,neutral_X4,x,a,False,908,3,11230,subTestPhase
10,0,neutral_X2,x,a,False,629,3,11230,subTestPhase
11,0,neutral_B3,b,b,True,904,3,11230,subTestPhase
12,0,neutral_A2,a,a,True,2056,3,11230,subTestPhase
13,0,neutral_X7,x,a,False,1006,3,11230,subTestPhase
14,0,neutral_A3,a,a,True,1599,3,11230,subTestPhase
15,0,neutral_X3,x,a,False,1009,3,11230,subTestPhase
16,0,neutral_A1,a,a,True,1437,3,11230,subTestPhase
0,0,neutral_X7,x,a,False,1018,3,11230,testPhase
1,0,neutral_B0,b,b,True,1248,3,11230,testPhase
2,0,neutral_Z4,z,a,False,3086,3,11230,testPhase
3,0,neutral_W8,w,a,False,2455,3,11230,testPhase
4,0,neutral_W7,w,a,False,1256,3,11230,testPhase
5,0,neutral_Y7,y,b,False,1758,3,11230,testPhase
6,0,neutral_W3,w,a,False,1878,3,11230,testPhase
7,0,neutral_W2,w,a,False,6500,3,11230,testPhase
8,0,neutral_B3,b,a,False,4108,3,11230,testPhase
9,0,neutral_X4,x,a,False,1256,3,11230,testPhase
10,0,neutral_W5,w,a,False,1660,3,11230,testPhase
11,0,neutral_Z7,z,a,False,3464,3,11230,testPhase
12,0,neutral_W0,w,a,False,1055,3,11230,testPhase
13,0,neutral_Z5,z,a,False,1009,3,11230,testPhase
14,0,neutral_Z8,z,a,False,750,3,11230,testPhase
15,0,neutral_Z3,z,a,False,1134,3,11230,testPhase
16,0,neutral_B2,b,b,True,4367,3,11230,testPhase
17,0,neutral_Y1,y,b,False,933,3,11230,testPhase
18,0,neutral_B1,b,b,True,991,3,11230,testPhase
19,0,neutral_X2,x,a,False,935,3,11230,testPhase
20,0,neutral_Y4,y,b,False,1505,3,11230,testPhase
21,0,neutral_Z2,z,a,False,2970,3,11230,testPhase
22,0,neutral_X1,x,a,False,1355,3,11230,testPhase
23,0,neutral_W4,w,a,False,1150,3,11230,testPhase
24,0,neutral_Y5,y,b,False,3182,3,11230,testPhase
25,0,neutral_Y0,y,b,False,655,3,11230,testPhase
26,0,neutral_X6,x,a,False,695,3,11230,testPhase
27,0,neutral_A0,a,a,True,643,3,11230,testPhase
28,0,neutral_W6,w,a,False,621,3,11230,testPhase
29,0,neutral_A1,a,a,True,694,3,11230,testPhase
30,0,neutral_Y6,y,b,False,1147,3,11230,testPhase
31,0,neutral_X5,x,a,False,800,3,11230,testPhase
32,0,neutral_Z6,z,a,False,3101,3,11230,testPhase
33,0,neutral_Y3,y,b,False,5595,3,11230,testPhase
34,0,neutral_X3,x,a,False,817,3,11230,testPhase
35,0,neutral_X0,x,a,False,618,3,11230,testPhase
36,0,neutral_A3,a,a,True,981,3,11230,testPhase
37,0,neutral_X8,x,a,False,1698,3,11230,testPhase
38,0,neutral_Y2,y,b,False,733,3,11230,testPhase
39,0,neutral_W1,w,a,False,1138,3,11230,testPhase
40,0,neutral_Z0,z,a,False,2429,3,11230,testPhase
41,0,neutral_Y8,y,b,False,1983,3,11230,testPhase
42,0,neutral_A2,a,a,True,1285,3,11230,testPhase
43,0,neutral_Z1,z,a,False,799,3,11230,testPhase
0,0,encourage_B0,b,b,True,2892,1,11231,trainPhase
1,0,encourage_A1,a,b,False,1421,1,11231,trainPhase
2,0,encourage_A2,a,b,False,1251,1,11231,trainPhase
3,0,encourage_B2,b,a,False,1310,1,11231,trainPhase
4,0,encourage_B1,b,a,False,1743,1,11231,trainPhase
5,0,encourage_A3,a,a,True,4547,1,11231,trainPhase
6,0,encourage_A0,a,b,False,1281,1,11231,trainPhase
7,0,encourage_B3,b,a,False,2333,1,11231,trainPhase
0,1,encourage_A1,a,a,True,1929,1,11231,trainPhase
1,1,encourage_A3,a,a,True,1369,1,11231,trainPhase
2,1,encourage_A0,a,b,False,855,1,11231,trainPhase
3,1,encourage_B2,b,b,True,1508,1,11231,trainPhase
4,1,encourage_B3,b,b,True,852,1,11231,trainPhase
5,1,encourage_B0,b,a,False,4419,1,11231,trainPhase
6,1,encourage_B1,b,a,False,1013,1,11231,trainPhase
7,1,encourage_A2,a,a,True,1117,1,11231,trainPhase
0,2,encourage_A0,a,a,True,1218,1,11231,trainPhase
1,2,encourage_B1,b,b,True,1118,1,11231,trainPhase
2,2,encourage_B3,b,b,True,1198,1,11231,trainPhase
3,2,encourage_A3,a,a,True,1222,1,11231,trainPhase
4,2,encourage_B0,b,a,False,2051,1,11231,trainPhase
5,2,encourage_A2,a,b,False,2023,1,11231,trainPhase
6,2,encourage_A1,a,a,True,1324,1,11231,trainPhase
7,2,encourage_B2,b,b,True,796,1,11231,trainPhase
0,3,encourage_B2,b,b,True,845,1,11231,trainPhase
1,3,encourage_B1,b,b,True,1134,1,11231,trainPhase
2,3,encourage_B0,b,b,True,1511,1,11231,trainPhase
3,3,encourage_A2,a,a,True,957,1,11231,trainPhase
4,3,encourage_A1,a,a,True,1439,1,11231,trainPhase
5,3,encourage_B3,b,b,True,1125,1,11231,trainPhase
6,3,encourage_A3,a,a,True,1194,1,11231,trainPhase
7,3,encourage_A0,a,a,True,1519,1,11231,trainPhase
0,4,encourage_B0,b,b,True,1763,1,11231,trainPhase
1,4,encourage_A0,a,a,True,1233,1,11231,trainPhase
2,4,encourage_B1,b,a,False,1277,1,11231,trainPhase
3,4,encourage_A2,a,a,True,910,1,11231,trainPhase
4,4,encourage_A3,a,a,True,942,1,11231,trainPhase
5,4,encourage_B2,b,b,True,1259,1,11231,trainPhase
6,4,encourage_A1,a,a,True,1067,1,11231,trainPhase
7,4,encourage_B3,b,b,True,855,1,11231,trainPhase
0,5,encourage_B0,b,b,True,1328,1,11231,trainPhase
1,5,encourage_A0,a,a,True,1303,1,11231,trainPhase
2,5,encourage_B3,b,b,True,1062,1,11231,trainPhase
3,5,encourage_A3,a,a,True,1026,1,11231,trainPhase
4,5,encourage_B1,b,a,False,983,1,11231,trainPhase
5,5,encourage_A2,a,a,True,1637,1,11231,trainPhase
6,5,encourage_B2,b,b,True,881,1,11231,trainPhase
7,5,encourage_A1,a,a,True,1232,1,11231,trainPhase
0,6,encourage_B0,b,b,True,693,1,11231,trainPhase
1,6,encourage_A1,a,a,True,1151,1,11231,trainPhase
2,6,encourage_B1,b,b,True,989,1,11231,trainPhase
3,6,encourage_A0,a,a,True,1425,1,11231,trainPhase
4,6,encourage_A3,a,a,True,1838,1,11231,trainPhase
5,6,encourage_B3,b,b,True,926,1,11231,trainPhase
6,6,encourage_A2,a,a,True,1003,1,11231,trainPhase
7,6,encourage_B2,b,a,False,1287,1,11231,trainPhase
0,7,encourage_B2,b,b,True,898,1,11231,trainPhase
1,7,encourage_A3,a,a,True,958,1,11231,trainPhase
2,7,encourage_A0,a,b,False,1107,1,11231,trainPhase
3,7,encourage_A1,a,a,True,1165,1,11231,trainPhase
4,7,encourage_B3,b,b,True,953,1,11231,trainPhase
5,7,encourage_B1,b,a,False,1029,1,11231,trainPhase
6,7,encourage_B0,b,b,True,3235,1,11231,trainPhase
7,7,encourage_A2,a,b,False,1190,1,11231,trainPhase
0,8,encourage_B1,b,b,True,1317,1,11231,trainPhase
1,8,encourage_A0,a,a,True,1182,1,11231,trainPhase
2,8,encourage_A3,a,a,True,899,1,11231,trainPhase
3,8,encourage_A1,a,a,True,1184,1,11231,trainPhase
4,8,encourage_A2,a,b,False,1375,1,11231,trainPhase
5,8,encourage_B3,b,b,True,1205,1,11231,trainPhase
6,8,encourage_B0,b,b,True,1053,1,11231,trainPhase
7,8,encourage_B2,b,b,True,829,1,11231,trainPhase
0,9,encourage_A0,a,a,True,1720,1,11231,trainPhase
1,9,encourage_A1,a,a,True,876,1,11231,trainPhase
2,9,encourage_B0,b,b,True,1508,1,11231,trainPhase
3,9,encourage_A2,a,a,True,1189,1,11231,trainPhase
4,9,encourage_A3,a,a,True,1228,1,11231,trainPhase
5,9,encourage_B3,b,b,True,1164,1,11231,trainPhase
6,9,encourage_B1,b,b,True,2270,1,11231,trainPhase
7,9,encourage_B2,b,b,True,917,1,11231,trainPhase
0,10,encourage_A2,a,a,True,1285,1,11231,trainPhase
1,10,encourage_A0,a,a,True,1871,1,11231,trainPhase
2,10,encourage_B0,b,b,True,1869,1,11231,trainPhase
3,10,encourage_A1,a,a,True,2173,1,11231,trainPhase
0,0,encourage_B2,b,b,True,4515,1,11231,subTestPhase
1,0,encourage_A2,a,a,True,2662,1,11231,subTestPhase
2,0,encourage_X8,x,a,False,1167,1,11231,subTestPhase
3,0,encourage_A0,a,a,True,2172,1,11231,subTestPhase
4,0,encourage_X1,x,a,False,887,1,11231,subTestPhase
5,0,encourage_X7,x,a,False,895,1,11231,subTestPhase
6,0,encourage_B0,b,b,True,1463,1,11231,subTestPhase
7,0,encourage_X6,x,a,False,938,1,11231,subTestPhase
8,0,encourage_B1,b,a,False,1618,1,11231,subTestPhase
9,0,encourage_B3,b,b,True,1003,1,11231,subTestPhase
10,0,encourage_X0,x,a,False,785,1,11231,subTestPhase
11,0,encourage_A1,a,a,True,893,1,11231,subTestPhase
12,0,encourage_X2,x,a,False,874,1,11231,subTestPhase
13,0,encourage_X4,x,a,False,865,1,11231,subTestPhase
14,0,encourage_X3,x,a,False,1001,1,11231,subTestPhase
15,0,encourage_A3,a,a,True,886,1,11231,subTestPhase
16,0,encourage_X5,x,a,False,891,1,11231,subTestPhase
0,0,encourage_X3,x,a,False,1047,1,11231,testPhase
1,0,encourage_A0,a,b,False,1091,1,11231,testPhase
2,0,encourage_W5,w,a,False,1732,1,11231,testPhase
3,0,encourage_Z6,z,a,False,1436,1,11231,testPhase
4,0,encourage_Y0,y,b,False,967,1,11231,testPhase
5,0,encourage_Y4,y,b,False,1014,1,11231,testPhase
6,0,encourage_B0,b,b,True,780,1,11231,testPhase
7,0,encourage_W3,w,a,False,1430,1,11231,testPhase
8,0,encourage_Y8,y,b,False,1130,1,11231,testPhase
9,0,encourage_X2,x,a,False,969,1,11231,testPhase
10,0,encourage_Y3,y,b,False,874,1,11231,testPhase
11,0,encourage_Y7,y,b,False,999,1,11231,testPhase
12,0,encourage_Z0,z,a,False,1356,1,11231,testPhase
13,0,encourage_Z1,z,a,False,996,1,11231,testPhase
14,0,encourage_W4,w,b,False,1084,1,11231,testPhase
15,0,encourage_W6,w,a,False,2513,1,11231,testPhase
16,0,encourage_Z4,z,a,False,998,1,11231,testPhase
17,0,encourage_X6,x,a,False,837,1,11231,testPhase
18,0,encourage_B2,b,b,True,982,1,11231,testPhase
19,0,encourage_Z7,z,a,False,1129,1,11231,testPhase
20,0,encourage_W7,w,a,False,1297,1,11231,testPhase
21,0,encourage_W8,w,a,False,1620,1,11231,testPhase
22,0,encourage_X0,x,b,False,1264,1,11231,testPhase
23,0,encourage_Z8,z,a,False,822,1,11231,testPhase
24,0,encourage_Z3,z,a,False,879,1,11231,testPhase
25,0,encourage_X7,x,a,False,798,1,11231,testPhase
26,0,encourage_W0,w,a,False,1210,1,11231,testPhase
27,0,encourage_Y5,y,b,False,1356,1,11231,testPhase
28,0,encourage_X8,x,a,False,1129,1,11231,testPhase
29,0,encourage_Z5,z,b,False,2263,1,11231,testPhase
30,0,encourage_Y2,y,b,False,849,1,11231,testPhase
31,0,encourage_Z2,z,b,False,3127,1,11231,testPhase
32,0,encourage_A1,a,b,False,1098,1,11231,testPhase
33,0,encourage_A2,a,b,False,4111,1,11231,testPhase
34,0,encourage_Y6,y,b,False,781,1,11231,testPhase
35,0,encourage_A3,a,a,True,1113,1,11231,testPhase
36,0,encourage_B3,b,b,True,1363,1,11231,testPhase
37,0,encourage_W1,w,a,False,1051,1,11231,testPhase
38,0,encourage_B1,b,b,True,1245,1,11231,testPhase
39,0,encourage_Y1,y,b,False,842,1,11231,testPhase
40,0,encourage_W2,w,a,False,967,1,11231,testPhase
41,0,encourage_X5,x,a,False,795,1,11231,testPhase
42,0,encourage_X4,x,a,False,774,1,11231,testPhase
43,0,encourage_X1,x,a,False,845,1,11231,testPhase
0,0,neutral_B3,b,a,False,2980,3,11232,trainPhase
1,0,neutral_B0,b,b,True,1898,3,11232,trainPhase
2,0,neutral_A3,a,b,False,1478,3,11232,trainPhase
3,0,neutral_B1,b,a,False,3475,3,11232,trainPhase
4,0,neutral_A0,a,b,False,3512,3,11232,trainPhase
5,0,neutral_A1,a,a,True,1470,3,11232,trainPhase
6,0,neutral_A2,a,b,False,1687,3,11232,trainPhase
7,0,neutral_B2,b,b,True,1721,3,11232,trainPhase
0,1,neutral_B3,b,a,False,1235,3,11232,trainPhase
1,1,neutral_A3,a,a,True,1698,3,11232,trainPhase
2,1,neutral_A1,a,b,False,1868,3,11232,trainPhase
3,1,neutral_A2,a,b,False,3145,3,11232,trainPhase
4,1,neutral_B0,b,b,True,2931,3,11232,trainPhase
5,1,neutral_B2,b,b,True,1570,3,11232,trainPhase
6,1,neutral_B1,b,a,False,2588,3,11232,trainPhase
7,1,neutral_A0,a,b,False,1903,3,11232,trainPhase
0,2,neutral_B2,b,b,True,1030,3,11232,trainPhase
1,2,neutral_B1,b,b,True,1462,3,11232,trainPhase
2,2,neutral_B3,b,b,True,1552,3,11232,trainPhase
3,2,neutral_A3,a,a,True,1130,3,11232,trainPhase
4,2,neutral_A0,a,a,True,1212,3,11232,trainPhase
5,2,neutral_B0,b,b,True,1239,3,11232,trainPhase
6,2,neutral_A1,a,a,True,1205,3,11232,trainPhase
7,2,neutral_A2,a,a,True,929,3,11232,trainPhase
0,3,neutral_B2,b,b,True,1490,3,11232,trainPhase
1,3,neutral_B3,b,b,True,1893,3,11232,trainPhase
2,3,neutral_A1,a,a,True,1029,3,11232,trainPhase
3,3,neutral_A2,a,a,True,1570,3,11232,trainPhase
4,3,neutral_B0,b,b,True,2942,3,11232,trainPhase
5,3,neutral_A0,a,a,True,4453,3,11232,trainPhase
6,3,neutral_A3,a,a,True,1327,3,11232,trainPhase
0,0,neutral_X1,x,a,False,1166,3,11232,subTestPhase
1,0,neutral_A3,a,b,False,2997,3,11232,subTestPhase
2,0,neutral_X3,x,a,False,2504,3,11232,subTestPhase
3,0,neutral_A2,a,b,False,1170,3,11232,subTestPhase
4,0,neutral_X8,x,a,False,1913,3,11232,subTestPhase
5,0,neutral_X0,x,b,False,1767,3,11232,subTestPhase
6,0,neutral_A0,a,a,True,2086,3,11232,subTestPhase
7,0,neutral_A1,a,a,True,1876,3,11232,subTestPhase
8,0,neutral_B2,b,b,True,1031,3,11232,subTestPhase
9,0,neutral_X7,x,a,False,909,3,11232,subTestPhase
10,0,neutral_X2,x,a,False,846,3,11232,subTestPhase
11,0,neutral_B0,b,b,True,1300,3,11232,subTestPhase
12,0,neutral_B3,b,b,True,1176,3,11232,subTestPhase
13,0,neutral_X4,x,a,False,996,3,11232,subTestPhase
14,0,neutral_B1,b,b,True,1301,3,11232,subTestPhase
15,0,neutral_X6,x,a,False,1306,3,11232,subTestPhase
16,0,neutral_X5,x,a,False,949,3,11232,subTestPhase
0,0,neutral_B2,b,b,True,1015,3,11232,testPhase
1,0,neutral_W0,w,a,False,1122,3,11232,testPhase
2,0,neutral_Y3,y,b,False,1709,3,11232,testPhase
3,0,neutral_Z5,z,b,False,1769,3,11232,testPhase
4,0,neutral_A0,a,a,True,3637,3,11232,testPhase
5,0,neutral_W1,w,a,False,1709,3,11232,testPhase
6,0,neutral_Z8,z,b,False,9127,3,11232,testPhase
7,0,neutral_W7,w,a,False,1103,3,11232,testPhase
8,0,neutral_W6,w,a,False,959,3,11232,testPhase
9,0,neutral_Z3,z,b,False,1687,3,11232,testPhase
10,0,neutral_Y7,y,b,False,6966,3,11232,testPhase
11,0,neutral_X3,x,a,False,1415,3,11232,testPhase
12,0,neutral_Y5,y,b,False,954,3,11232,testPhase
13,0,neutral_X1,x,a,False,814,3,11232,testPhase
14,0,neutral_Z2,z,a,False,997,3,11232,testPhase
15,0,neutral_Z1,z,a,False,967,3,11232,testPhase
16,0,neutral_X0,x,a,False,1005,3,11232,testPhase
17,0,neutral_Z4,z,a,False,966,3,11232,testPhase
18,0,neutral_X4,x,a,False,886,3,11232,testPhase
19,0,neutral_Y0,y,b,False,990,3,11232,testPhase
20,0,neutral_X8,x,a,False,1997,3,11232,testPhase
21,0,neutral_W5,w,a,False,1534,3,11232,testPhase
22,0,neutral_B3,b,b,True,2153,3,11232,testPhase
23,0,neutral_W8,w,a,False,862,3,11232,testPhase
24,0,neutral_X5,x,a,False,844,3,11232,testPhase
25,0,neutral_Y4,y,b,False,972,3,11232,testPhase
26,0,neutral_B0,b,a,False,1855,3,11232,testPhase
27,0,neutral_X7,x,a,False,873,3,11232,testPhase
28,0,neutral_X6,x,a,False,767,3,11232,testPhase
29,0,neutral_Y1,y,b,False,897,3,11232,testPhase
30,0,neutral_Y2,y,b,False,638,3,11232,testPhase
31,0,neutral_Z0,z,b,False,894,3,11232,testPhase
32,0,neutral_Y6,y,b,False,942,3,11232,testPhase
33,0,neutral_W4,w,a,False,1474,3,11232,testPhase
34,0,neutral_Z7,z,b,False,2974,3,11232,testPhase
35,0,neutral_X2,x,a,False,715,3,11232,testPhase
36,0,neutral_A1,a,a,True,532,3,11232,testPhase
37,0,neutral_A2,a,a,True,668,3,11232,testPhase
38,0,neutral_A3,a,a,True,717,3,11232,testPhase
39,0,neutral_B1,b,b,True,1998,3,11232,testPhase
40,0,neutral_Z6,z,a,False,734,3,11232,testPhase
41,0,neutral_W3,w,a,False,637,3,11232,testPhase
42,0,neutral_Y8,y,b,False,968,3,11232,testPhase
43,0,neutral_W2,w,a,False,1314,3,11232,testPhase
0,0,neutral_B2,b,a,False,4010,3,11233,trainPhase
1,0,neutral_A1,a,a,True,2565,3,11233,trainPhase
2,0,neutral_B1,b,b,True,1249,3,11233,trainPhase
3,0,neutral_B0,b,b,True,1405,3,11233,trainPhase
4,0,neutral_A0,a,a,True,1005,3,11233,trainPhase
5,0,neutral_B3,b,b,True,1308,3,11233,trainPhase
6,0,neutral_A3,a,b,False,837,3,11233,trainPhase
7,0,neutral_A2,a,a,True,1828,3,11233,trainPhase
0,1,neutral_B3,b,a,False,1269,3,11233,trainPhase
1,1,neutral_B1,b,b,True,2292,3,11233,trainPhase
2,1,neutral_A3,a,b,False,1278,3,11233,trainPhase
3,1,neutral_A1,a,a,True,750,3,11233,trainPhase
4,1,neutral_A0,a,a,True,1061,3,11233,trainPhase
5,1,neutral_B0,b,b,True,1276,3,11233,trainPhase
6,1,neutral_A2,a,a,True,1222,3,11233,trainPhase
7,1,neutral_B2,b,a,False,837,3,11233,trainPhase
0,2,neutral_B1,b,a,False,2581,3,11233,trainPhase
1,2,neutral_B2,b,a,False,670,3,11233,trainPhase
2,2,neutral_A1,a,a,True,572,3,11233,trainPhase
3,2,neutral_B3,b,b,True,781,3,11233,trainPhase
4,2,neutral_A3,a,b,False,725,3,11233,trainPhase
5,2,neutral_B0,b,b,True,1421,3,11233,trainPhase
6,2,neutral_A0,a,a,True,1070,3,11233,trainPhase
7,2,neutral_A2,a,b,False,1853,3,11233,trainPhase
0,3,neutral_B3,b,b,True,934,3,11233,trainPhase
1,3,neutral_A0,a,a,True,1621,3,11233,trainPhase
2,3,neutral_A2,a,b,False,1266,3,11233,trainPhase
3,3,neutral_B0,b,b,True,510,3,11233,trainPhase
4,3,neutral_A3,a,b,False,902,3,11233,trainPhase
5,3,neutral_B1,b,b,True,1428,3,11233,trainPhase
6,3,neutral_B2,b,a,False,1125,3,11233,trainPhase
7,3,neutral_A1,a,a,True,1101,3,11233,trainPhase
0,4,neutral_A1,a,a,True,1070,3,11233,trainPhase
1,4,neutral_A0,a,a,True,652,3,11233,trainPhase
2,4,neutral_B2,b,b,True,868,3,11233,trainPhase
3,4,neutral_B3,b,a,False,2060,3,11233,trainPhase
4,4,neutral_B0,b,a,False,989,3,11233,trainPhase
5,4,neutral_A3,a,a,True,389,3,11233,trainPhase
6,4,neutral_A2,a,b,False,998,3,11233,trainPhase
7,4,neutral_B1,b,b,True,661,3,11233,trainPhase
0,5,neutral_B0,b,b,True,805,3,11233,trainPhase
1,5,neutral_B2,b,a,False,703,3,11233,trainPhase
2,5,neutral_B3,b,a,False,1029,3,11233,trainPhase
3,5,neutral_A3,a,a,True,405,3,11233,trainPhase
4,5,neutral_A0,a,a,True,1173,3,11233,trainPhase
5,5,neutral_A2,a,b,False,6037,3,11233,trainPhase
6,5,neutral_B1,b,b,True,510,3,11233,trainPhase
7,5,neutral_A1,a,a,True,750,3,11233,trainPhase
0,6,neutral_B0,b,a,False,1998,3,11233,trainPhase
1,6,neutral_B3,b,a,False,1430,3,11233,trainPhase
2,6,neutral_A1,a,a,True,550,3,11233,trainPhase
3,6,neutral_B2,b,b,True,734,3,11233,trainPhase
4,6,neutral_B1,b,b,True,1101,3,11233,trainPhase
5,6,neutral_A3,a,a,True,981,3,11233,trainPhase
6,6,neutral_A2,a,a,True,1597,3,11233,trainPhase
7,6,neutral_A0,a,a,True,766,3,11233,trainPhase
0,7,neutral_B3,b,b,True,1126,3,11233,trainPhase
1,7,neutral_B1,b,b,True,1174,3,11233,trainPhase
2,7,neutral_A2,a,a,True,526,3,11233,trainPhase
3,7,neutral_B2,b,a,False,727,3,11233,trainPhase
4,7,neutral_A3,a,a,True,686,3,11233,trainPhase
5,7,neutral_A0,a,a,True,654,3,11233,trainPhase
6,7,neutral_A1,a,a,True,645,3,11233,trainPhase
7,7,neutral_B0,b,b,True,1077,3,11233,trainPhase
0,8,neutral_A3,a,b,False,669,3,11233,trainPhase
1,8,neutral_B1,b,b,True,1358,3,11233,trainPhase
2,8,neutral_A0,a,a,True,710,3,11233,trainPhase
3,8,neutral_A2,a,a,True,1221,3,11233,trainPhase
4,8,neutral_B0,b,a,False,646,3,11233,trainPhase
5,8,neutral_A1,a,a,True,781,3,11233,trainPhase
6,8,neutral_B3,b,b,True,1269,3,11233,trainPhase
7,8,neutral_B2,b,b,True,805,3,11233,trainPhase
0,9,neutral_A1,a,a,True,1341,3,11233,trainPhase
1,9,neutral_A0,a,a,True,654,3,11233,trainPhase
2,9,neutral_B0,b,a,False,765,3,11233,trainPhase
3,9,neutral_B1,b,a,False,614,3,11233,trainPhase
4,9,neutral_A3,a,a,True,662,3,11233,trainPhase
5,9,neutral_B2,b,a,False,773,3,11233,trainPhase
6,9,neutral_B3,b,a,False,718,3,11233,trainPhase
7,9,neutral_A2,a,b,False,877,3,11233,trainPhase
0,10,neutral_B2,b,b,True,1190,3,11233,trainPhase
1,10,neutral_A3,a,b,False,1149,3,11233,trainPhase
2,10,neutral_A1,a,a,True,646,3,11233,trainPhase
3,10,neutral_B1,b,a,False,813,3,11233,trainPhase
4,10,neutral_B0,b,b,True,1037,3,11233,trainPhase
5,10,neutral_A2,a,a,True,1238,3,11233,trainPhase
6,10,neutral_B3,b,a,False,1046,3,11233,trainPhase
7,10,neutral_A0,a,a,True,790,3,11233,trainPhase
0,11,neutral_B1,b,b,True,1910,3,11233,trainPhase
1,11,neutral_A0,a,a,True,918,3,11233,trainPhase
2,11,neutral_A1,a,a,True,821,3,11233,trainPhase
3,11,neutral_B2,b,b,True,1965,3,11233,trainPhase
4,11,neutral_B3,b,b,True,5374,3,11233,trainPhase
5,11,neutral_A2,a,a,True,1229,3,11233,trainPhase
6,11,neutral_B0,b,b,True,1382,3,11233,trainPhase
7,11,neutral_A3,a,b,False,886,3,11233,trainPhase
0,0,neutral_X8,x,a,False,1901,3,11233,subTestPhase
1,0,neutral_X6,x,a,False,1581,3,11233,subTestPhase
2,0,neutral_B0,b,b,True,1094,3,11233,subTestPhase
3,0,neutral_X4,x,a,False,910,3,11233,subTestPhase
4,0,neutral_X0,x,a,False,924,3,11233,subTestPhase
5,0,neutral_A0,a,a,True,975,3,11233,subTestPhase
6,0,neutral_B1,b,b,True,1141,3,11233,subTestPhase
7,0,neutral_A1,a,a,True,623,3,11233,subTestPhase
8,0,neutral_B2,b,b,True,1358,3,11233,subTestPhase
9,0,neutral_B3,b,b,True,989,3,11233,subTestPhase
10,0,neutral_A2,a,b,False,1013,3,11233,subTestPhase
11,0,neutral_X3,x,a,False,925,3,11233,subTestPhase
12,0,neutral_X5,x,a,False,623,3,11233,subTestPhase
13,0,neutral_X2,x,a,False,629,3,11233,subTestPhase
14,0,neutral_X7,x,a,False,462,3,11233,subTestPhase
15,0,neutral_X1,x,a,False,637,3,11233,subTestPhase
16,0,neutral_A3,a,b,False,1021,3,11233,subTestPhase
0,0,neutral_Z1,z,b,False,990,3,11233,testPhase
1,0,neutral_Z4,z,b,False,870,3,11233,testPhase
2,0,neutral_Y5,y,b,False,7214,3,11233,testPhase
3,0,neutral_X3,x,a,False,758,3,11233,testPhase
4,0,neutral_W0,w,a,False,812,3,11233,testPhase
5,0,neutral_X2,x,a,False,614,3,11233,testPhase
6,0,neutral_X6,x,a,False,550,3,11233,testPhase
7,0,neutral_Y6,y,b,False,918,3,11233,testPhase
8,0,neutral_W6,w,a,False,1942,3,11233,testPhase
9,0,neutral_Z3,z,b,False,935,3,11233,testPhase
10,0,neutral_Y8,y,b,False,1878,3,11233,testPhase
11,0,neutral_W4,w,a,False,790,3,11233,testPhase
12,0,neutral_W1,w,a,False,832,3,11233,testPhase
13,0,neutral_B0,b,b,True,1124,3,11233,testPhase
14,0,neutral_W8,w,a,False,878,3,11233,testPhase
15,0,neutral_B1,b,b,True,880,3,11233,testPhase
16,0,neutral_W2,w,a,False,671,3,11233,testPhase
17,0,neutral_Z2,z,b,False,1242,3,11233,testPhase
18,0,neutral_B2,b,b,True,2413,3,11233,testPhase
19,0,neutral_Z7,z,b,False,1254,3,11233,testPhase
20,0,neutral_A3,a,a,True,1036,3,11233,testPhase
21,0,neutral_X5,x,a,False,626,3,11233,testPhase
22,0,neutral_Z0,z,b,False,886,3,11233,testPhase
23,0,neutral_X1,x,a,False,510,3,11233,testPhase
24,0,neutral_Y2,y,b,False,711,3,11233,testPhase
25,0,neutral_A2,a,b,False,1189,3,11233,testPhase
26,0,neutral_Z8,z,b,False,842,3,11233,testPhase
27,0,neutral_A1,a,a,True,701,3,11233,testPhase
28,0,neutral_W5,w,a,False,941,3,11233,testPhase
29,0,neutral_X0,x,a,False,773,3,11233,testPhase
30,0,neutral_X8,x,a,False,549,3,11233,testPhase
31,0,neutral_W7,w,a,False,570,3,11233,testPhase
32,0,neutral_B3,b,b,True,911,3,11233,testPhase
33,0,neutral_Y7,y,b,False,1045,3,11233,testPhase
34,0,neutral_X7,x,a,False,620,3,11233,testPhase
35,0,neutral_Z5,z,b,False,839,3,11233,testPhase
36,0,neutral_Z6,z,b,False,1117,3,11233,testPhase
37,0,neutral_Y4,y,b,False,1197,3,11233,testPhase
38,0,neutral_Y1,y,b,False,725,3,11233,testPhase
39,0,neutral_A0,a,a,True,661,3,11233,testPhase
40,0,neutral_W3,w,a,False,669,3,11233,testPhase
41,0,neutral_X4,x,a,False,502,3,11233,testPhase
42,0,neutral_Y0,y,b,False,934,3,11233,testPhase
43,0,neutral_Y3,y,b,False,5246,3,11233,testPhase
0,0,neutral_A1,a,a,True,3255,3,11234,trainPhase
1,0,neutral_B1,b,b,True,1225,3,11234,trainPhase
2,0,neutral_B0,b,b,True,1296,3,11234,trainPhase
3,0,neutral_B3,b,b,True,1444,3,11234,trainPhase
4,0,neutral_A3,a,b,False,1742,3,11234,trainPhase
5,0,neutral_A2,a,a,True,1468,3,11234,trainPhase
6,0,neutral_B2,b,a,False,1661,3,11234,trainPhase
7,0,neutral_A0,a,b,False,1509,3,11234,trainPhase
0,1,neutral_B2,b,a,False,3050,3,11234,trainPhase
1,1,neutral_A1,a,a,True,1445,3,11234,trainPhase
2,1,neutral_A2,a,b,False,1625,3,11234,trainPhase
3,1,neutral_A0,a,a,True,1091,3,11234,trainPhase
4,1,neutral_B1,b,b,True,1616,3,11234,trainPhase
5,1,neutral_A3,a,b,False,3545,3,11234,trainPhase
6,1,neutral_B3,b,a,False,2201,3,11234,trainPhase
7,1,neutral_B0,b,b,True,3864,3,11234,trainPhase
0,2,neutral_B0,b,b,True,1063,3,11234,trainPhase
1,2,neutral_B3,b,a,False,1298,3,11234,trainPhase
2,2,neutral_A1,a,a,True,1077,3,11234,trainPhase
3,2,neutral_B2,b,b,True,1086,3,11234,trainPhase
4,2,neutral_A3,a,b,False,826,3,11234,trainPhase
5,2,neutral_B1,b,b,True,1822,3,11234,trainPhase
6,2,neutral_A0,a,a,True,822,3,11234,trainPhase
7,2,neutral_A2,a,a,True,1349,3,11234,trainPhase
0,3,neutral_A2,a,a,True,780,3,11234,trainPhase
1,3,neutral_B3,b,b,True,1149,3,11234,trainPhase
2,3,neutral_B1,b,b,True,1107,3,11234,trainPhase
3,3,neutral_A0,a,a,True,1204,3,11234,trainPhase
4,3,neutral_A3,a,a,True,1515,3,11234,trainPhase
5,3,neutral_B2,b,b,True,1058,3,11234,trainPhase
6,3,neutral_B0,b,b,True,941,3,11234,trainPhase
7,3,neutral_A1,a,a,True,817,3,11234,trainPhase
0,4,neutral_B1,b,b,True,813,3,11234,trainPhase
1,4,neutral_A0,a,a,True,854,3,11234,trainPhase
2,4,neutral_B2,b,b,True,2334,3,11234,trainPhase
3,4,neutral_B3,b,b,True,1885,3,11234,trainPhase
0,0,neutral_X5,x,a,False,1243,3,11234,subTestPhase
1,0,neutral_X3,x,a,False,990,3,11234,subTestPhase
2,0,neutral_X4,x,a,False,1190,3,11234,subTestPhase
3,0,neutral_X0,x,a,False,1087,3,11234,subTestPhase
4,0,neutral_B1,b,b,True,917,3,11234,subTestPhase
5,0,neutral_A3,a,a,True,886,3,11234,subTestPhase
6,0,neutral_B3,b,b,True,720,3,11234,subTestPhase
7,0,neutral_X7,x,a,False,837,3,11234,subTestPhase
8,0,neutral_B2,b,b,True,621,3,11234,subTestPhase
9,0,neutral_X8,x,a,False,862,3,11234,subTestPhase
10,0,neutral_A1,a,a,True,1017,3,11234,subTestPhase
11,0,neutral_A0,a,a,True,879,3,11234,subTestPhase
12,0,neutral_B0,b,b,True,925,3,11234,subTestPhase
13,0,neutral_X6,x,a,False,969,3,11234,subTestPhase
14,0,neutral_X2,x,a,False,700,3,11234,subTestPhase
15,0,neutral_A2,a,a,True,1149,3,11234,subTestPhase
16,0,neutral_X1,x,a,False,4688,3,11234,subTestPhase
0,0,neutral_Z8,z,a,False,5077,3,11234,testPhase
1,0,neutral_Z1,z,a,False,1426,3,11234,testPhase
2,0,neutral_W7,w,b,False,985,3,11234,testPhase
3,0,neutral_W4,w,a,False,920,3,11234,testPhase
4,0,neutral_X0,x,a,False,527,3,11234,testPhase
5,0,neutral_W6,w,a,False,1462,3,11234,testPhase
6,0,neutral_Y7,y,b,False,1189,3,11234,testPhase
7,0,neutral_Z5,z,a,False,1070,3,11234,testPhase
8,0,neutral_B0,b,b,True,1023,3,11234,testPhase
9,0,neutral_A3,a,a,True,782,3,11234,testPhase
10,0,neutral_X4,x,a,False,1013,3,11234,testPhase
11,0,neutral_Y5,y,b,False,1125,3,11234,testPhase
12,0,neutral_Z0,z,a,False,801,3,11234,testPhase
13,0,neutral_W3,w,b,False,661,3,11234,testPhase
14,0,neutral_B2,b,a,False,518,3,11234,testPhase
15,0,neutral_X2,x,a,False,517,3,11234,testPhase
16,0,neutral_Z7,z,a,False,541,3,11234,testPhase
17,0,neutral_A2,a,a,True,494,3,11234,testPhase
18,0,neutral_Z3,z,a,False,469,3,11234,testPhase
19,0,neutral_Z2,z,a,False,1469,3,11234,testPhase
20,0,neutral_W0,w,a,False,1045,3,11234,testPhase
21,0,neutral_X1,x,a,False,590,3,11234,testPhase
22,0,neutral_W2,w,a,False,429,3,11234,testPhase
23,0,neutral_X5,x,a,False,365,3,11234,testPhase
24,0,neutral_Y4,y,b,False,1653,3,11234,testPhase
25,0,neutral_X7,x,a,False,822,3,11234,testPhase
26,0,neutral_Y8,y,b,False,1008,3,11234,testPhase
27,0,neutral_Y3,y,b,False,822,3,11234,testPhase
28,0,neutral_X8,x,a,False,893,3,11234,testPhase
29,0,neutral_A1,a,a,True,998,3,11234,testPhase
30,0,neutral_A0,a,a,True,770,3,11234,testPhase
31,0,neutral_X3,x,a,False,568,3,11234,testPhase
32,0,neutral_Y6,y,b,False,895,3,11234,testPhase
33,0,neutral_W8,w,a,False,1469,3,11234,testPhase
34,0,neutral_B1,b,a,False,1118,3,11234,testPhase
35,0,neutral_Y1,y,b,False,1026,3,11234,testPhase
36,0,neutral_B3,b,a,False,749,3,11234,testPhase
37,0,neutral_Y2,y,b,False,637,3,11234,testPhase
38,0,neutral_W5,w,a,False,476,3,11234,testPhase
39,0,neutral_Z6,z,a,False,941,3,11234,testPhase
40,0,neutral_W1,w,a,False,413,3,11234,testPhase
41,0,neutral_Y0,y,b,False,773,3,11234,testPhase
42,0,neutral_X6,x,a,False,573,3,11234,testPhase
43,0,neutral_Z4,z,a,False,1031,3,11234,testPhase
0,0,encourage_B0,b,a,False,6848,1,11235,trainPhase
1,0,encourage_A2,a,b,False,1954,1,11235,trainPhase
2,0,encourage_B2,b,a,False,4768,1,11235,trainPhase
3,0,encourage_A3,a,a,True,3397,1,11235,trainPhase
4,0,encourage_B3,b,b,True,1659,1,11235,trainPhase
5,0,encourage_A1,a,b,False,1880,1,11235,trainPhase
6,0,encourage_B1,b,a,False,1253,1,11235,trainPhase
7,0,encourage_A0,a,a,True,2492,1,11235,trainPhase
0,1,encourage_B0,b,b,True,916,1,11235,trainPhase
1,1,encourage_B1,b,b,True,1309,1,11235,trainPhase
2,1,encourage_B2,b,b,True,1621,1,11235,trainPhase
3,1,encourage_A3,a,b,False,2233,1,11235,trainPhase
4,1,encourage_A0,a,a,True,4222,1,11235,trainPhase
5,1,encourage_A2,a,b,False,1079,1,11235,trainPhase
6,1,encourage_B3,b,a,False,2649,1,11235,trainPhase
7,1,encourage_A1,a,b,False,3673,1,11235,trainPhase
0,2,encourage_B0,b,a,False,2198,1,11235,trainPhase
1,2,encourage_A0,a,a,True,2287,1,11235,trainPhase
2,2,encourage_A2,a,b,False,1462,1,11235,trainPhase
3,2,encourage_B2,b,b,True,2836,1,11235,trainPhase
4,2,encourage_B3,b,b,True,862,1,11235,trainPhase
5,2,encourage_A1,a,a,True,1014,1,11235,trainPhase
6,2,encourage_A3,a,b,False,1011,1,11235,trainPhase
7,2,encourage_B1,b,b,True,1164,1,11235,trainPhase
0,3,encourage_A0,a,a,True,1398,1,11235,trainPhase
1,3,encourage_B3,b,b,True,1253,1,11235,trainPhase
2,3,encourage_B0,b,b,True,941,1,11235,trainPhase
3,3,encourage_A3,a,b,False,877,1,11235,trainPhase
4,3,encourage_B2,b,b,True,1029,1,11235,trainPhase
5,3,encourage_B1,b,b,True,1165,1,11235,trainPhase
6,3,encourage_A1,a,a,True,893,1,11235,trainPhase
7,3,encourage_A2,a,b,False,989,1,11235,trainPhase
0,4,encourage_A3,a,b,False,845,1,11235,trainPhase
1,4,encourage_B0,b,b,True,974,1,11235,trainPhase
2,4,encourage_A1,a,a,True,973,1,11235,trainPhase
3,4,encourage_B2,b,b,True,830,1,11235,trainPhase
4,4,encourage_B1,b,b,True,949,1,11235,trainPhase
5,4,encourage_B3,b,b,True,958,1,11235,trainPhase
6,4,encourage_A0,a,a,True,3733,1,11235,trainPhase
7,4,encourage_A2,a,a,True,1740,1,11235,trainPhase
0,5,encourage_B3,b,b,True,1501,1,11235,trainPhase
1,5,encourage_A3,a,a,True,1038,1,11235,trainPhase
2,5,encourage_B0,b,b,True,702,1,11235,trainPhase
3,5,encourage_A0,a,a,True,1341,1,11235,trainPhase
4,5,encourage_B2,b,b,True,1109,1,11235,trainPhase
5,5,encourage_A2,a,b,False,982,1,11235,trainPhase
6,5,encourage_A1,a,a,True,1068,1,11235,trainPhase
7,5,encourage_B1,b,b,True,1006,1,11235,trainPhase
0,6,encourage_B0,b,b,True,965,1,11235,trainPhase
1,6,encourage_A3,a,a,True,1478,1,11235,trainPhase
2,6,encourage_A1,a,a,True,1293,1,11235,trainPhase
3,6,encourage_B2,b,b,True,997,1,11235,trainPhase
4,6,encourage_B3,b,b,True,894,1,11235,trainPhase
5,6,encourage_B1,b,b,True,1022,1,11235,trainPhase
6,6,encourage_A0,a,a,True,990,1,11235,trainPhase
7,6,encourage_A2,a,b,False,1485,1,11235,trainPhase
0,7,encourage_B0,b,b,True,1166,1,11235,trainPhase
1,7,encourage_B2,b,b,True,950,1,11235,trainPhase
2,7,encourage_A3,a,a,True,2222,1,11235,trainPhase
3,7,encourage_B3,b,b,True,870,1,11235,trainPhase
4,7,encourage_B1,b,b,True,814,1,11235,trainPhase
5,7,encourage_A0,a,a,True,1166,1,11235,trainPhase
6,7,encourage_A2,a,b,False,822,1,11235,trainPhase
7,7,encourage_A1,a,a,True,1166,1,11235,trainPhase
0,8,encourage_B2,b,b,True,1374,1,11235,trainPhase
1,8,encourage_B3,b,b,True,1149,1,11235,trainPhase
2,8,encourage_A2,a,b,False,2956,1,11235,trainPhase
3,8,encourage_B1,b,b,True,1221,1,11235,trainPhase
4,8,encourage_B0,b,b,True,949,1,11235,trainPhase
5,8,encourage_A1,a,a,True,1029,1,11235,trainPhase
6,8,encourage_A3,a,b,False,1253,1,11235,trainPhase
7,8,encourage_A0,a,a,True,710,1,11235,trainPhase
0,9,encourage_B1,b,b,True,965,1,11235,trainPhase
1,9,encourage_A2,a,b,False,965,1,11235,trainPhase
2,9,encourage_A3,a,b,False,1405,1,11235,trainPhase
3,9,encourage_A0,a,a,True,701,1,11235,trainPhase
4,9,encourage_A1,a,a,True,638,1,11235,trainPhase
5,9,encourage_B2,b,b,True,1005,1,11235,trainPhase
6,9,encourage_B0,b,b,True,893,1,11235,trainPhase
7,9,encourage_B3,b,b,True,669,1,11235,trainPhase
0,10,encourage_A3,a,b,False,710,1,11235,trainPhase
1,10,encourage_A2,a,b,False,1757,1,11235,trainPhase
2,10,encourage_A1,a,a,True,902,1,11235,trainPhase
3,10,encourage_B2,b,b,True,1398,1,11235,trainPhase
4,10,encourage_B0,b,b,True,1246,1,11235,trainPhase
5,10,encourage_B1,b,b,True,1021,1,11235,trainPhase
6,10,encourage_B3,b,b,True,1109,1,11235,trainPhase
7,10,encourage_A0,a,a,True,718,1,11235,trainPhase
0,11,encourage_B1,b,b,True,1309,1,11235,trainPhase
1,11,encourage_A2,a,b,False,1038,1,11235,trainPhase
2,11,encourage_B2,b,b,True,822,1,11235,trainPhase
3,11,encourage_A1,a,a,True,1318,1,11235,trainPhase
4,11,encourage_A0,a,a,True,854,1,11235,trainPhase
5,11,encourage_B0,b,b,True,1039,1,11235,trainPhase
6,11,encourage_A3,a,b,False,805,1,11235,trainPhase
7,11,encourage_B3,b,b,True,718,1,11235,trainPhase
0,0,encourage_B3,b,b,True,3332,1,11235,subTestPhase
1,0,encourage_X2,x,a,False,2417,1,11235,subTestPhase
2,0,encourage_X4,x,a,False,1198,1,11235,subTestPhase
3,0,encourage_A0,a,a,True,979,1,11235,subTestPhase
4,0,encourage_B0,b,b,True,882,1,11235,subTestPhase
5,0,encourage_B1,b,b,True,857,1,11235,subTestPhase
6,0,encourage_A1,a,a,True,856,1,11235,subTestPhase
7,0,encourage_X0,x,b,False,1998,1,11235,subTestPhase
8,0,encourage_X6,x,b,False,1637,1,11235,subTestPhase
9,0,encourage_X5,x,a,False,1238,1,11235,subTestPhase
10,0,encourage_A2,a,b,False,968,1,11235,subTestPhase
11,0,encourage_X1,x,a,False,988,1,11235,subTestPhase
12,0,encourage_B2,b,b,True,868,1,11235,subTestPhase
13,0,encourage_X7,x,a,False,1013,1,11235,subTestPhase
14,0,encourage_A3,a,b,False,1990,1,11235,subTestPhase
15,0,encourage_X8,x,a,False,1053,1,11235,subTestPhase
16,0,encourage_X3,x,b,False,1342,1,11235,subTestPhase
0,0,encourage_W6,w,a,False,2241,1,11235,testPhase
1,0,encourage_W0,w,a,False,1109,1,11235,testPhase
2,0,encourage_Y8,y,b,False,1303,1,11235,testPhase
3,0,encourage_X5,x,a,False,854,1,11235,testPhase
4,0,encourage_Z7,z,b,False,1109,1,11235,testPhase
5,0,encourage_Z0,z,b,False,1237,1,11235,testPhase
6,0,encourage_B2,b,b,True,877,1,11235,testPhase
7,0,encourage_W2,w,a,False,1174,1,11235,testPhase
8,0,encourage_Y1,y,b,False,1078,1,11235,testPhase
9,0,encourage_A1,a,a,True,910,1,11235,testPhase
10,0,encourage_W1,w,a,False,1090,1,11235,testPhase
11,0,encourage_X6,x,b,False,1013,1,11235,testPhase
12,0,encourage_Z6,z,b,False,1550,1,11235,testPhase
13,0,encourage_X1,x,a,False,927,1,11235,testPhase
14,0,encourage_Z4,z,b,False,1030,1,11235,testPhase
15,0,encourage_Y6,y,b,False,868,1,11235,testPhase
16,0,encourage_X2,x,a,False,910,1,11235,testPhase
17,0,encourage_B0,b,b,True,1014,1,11235,testPhase
18,0,encourage_A0,a,a,True,838,1,11235,testPhase
19,0,encourage_X0,x,a,False,1606,1,11235,testPhase
20,0,encourage_Z8,z,b,False,1669,1,11235,testPhase
21,0,encourage_X4,x,a,False,876,1,11235,testPhase
22,0,encourage_A2,a,b,False,1166,1,11235,testPhase
23,0,encourage_Z5,z,b,False,1054,1,11235,testPhase
24,0,encourage_W3,w,a,False,1030,1,11235,testPhase
25,0,encourage_Y7,y,b,False,1175,1,11235,testPhase
26,0,encourage_B3,b,b,True,1174,1,11235,testPhase
27,0,encourage_W5,w,a,False,1014,1,11235,testPhase
28,0,encourage_X7,x,a,False,801,1,11235,testPhase
29,0,encourage_W7,w,a,False,867,1,11235,testPhase
30,0,encourage_X3,x,a,False,782,1,11235,testPhase
31,0,encourage_B1,b,b,True,990,1,11235,testPhase
32,0,encourage_Z2,z,b,False,935,1,11235,testPhase
33,0,encourage_X8,x,a,False,846,1,11235,testPhase
34,0,encourage_Z3,z,b,False,848,1,11235,testPhase
35,0,encourage_W8,w,a,False,1080,1,11235,testPhase
36,0,encourage_Y4,y,b,False,765,1,11235,testPhase
37,0,encourage_A3,a,b,False,1839,1,11235,testPhase
38,0,encourage_Y2,y,b,False,1429,1,11235,testPhase
39,0,encourage_Y0,y,b,False,933,1,11235,testPhase
40,0,encourage_Y5,y,b,False,1120,1,11235,testPhase
41,0,encourage_Y3,y,b,False,981,1,11235,testPhase
42,0,encourage_W4,w,a,False,1149,1,11235,testPhase
43,0,encourage_Z1,z,b,False,1285,1,11235,testPhase
0,0,encourage_A0,a,a,True,3600,1,11128,trainPhase
1,0,encourage_B3,b,a,False,4227,1,11128,trainPhase
2,0,encourage_A3,a,b,False,2573,1,11128,trainPhase
3,0,encourage_B2,b,b,True,4317,1,11128,trainPhase
4,0,encourage_A2,a,a,True,1272,1,11128,trainPhase
5,0,encourage_B1,b,b,True,3543,1,11128,trainPhase
6,0,encourage_A1,a,a,True,2782,1,11128,trainPhase
7,0,encourage_B0,b,b,True,1615,1,11128,trainPhase
0,1,encourage_B2,b,b,True,1409,1,11128,trainPhase
1,1,encourage_A1,a,a,True,1242,1,11128,trainPhase
2,1,encourage_A0,a,a,True,1308,1,11128,trainPhase
3,1,encourage_B0,b,b,True,1901,1,11128,trainPhase
4,1,encourage_B1,b,b,True,1674,1,11128,trainPhase
5,1,encourage_B3,b,b,True,1446,1,11128,trainPhase
6,1,encourage_A2,a,a,True,2045,1,11128,trainPhase
7,1,encourage_A3,a,a,True,1013,1,11128,trainPhase
0,2,encourage_B1,b,b,True,2068,1,11128,trainPhase
1,2,encourage_B0,b,b,True,3718,1,11128,trainPhase
0,0,encourage_A2,a,a,True,3072,1,11128,subTestPhase
1,0,encourage_X8,x,a,False,1134,1,11128,subTestPhase
2,0,encourage_B2,b,b,True,1276,1,11128,subTestPhase
3,0,encourage_B3,b,b,True,825,1,11128,subTestPhase
4,0,encourage_B0,b,b,True,1999,1,11128,subTestPhase
5,0,encourage_A1,a,a,True,990,1,11128,subTestPhase
6,0,encourage_X0,x,a,False,814,1,11128,subTestPhase
7,0,encourage_X6,x,a,False,909,1,11128,subTestPhase
8,0,encourage_X7,x,a,False,783,1,11128,subTestPhase
9,0,encourage_A0,a,a,True,1813,1,11128,subTestPhase
10,0,encourage_B1,b,b,True,2628,1,11128,subTestPhase
11,0,encourage_X5,x,a,False,943,1,11128,subTestPhase
12,0,encourage_X4,x,a,False,1008,1,11128,subTestPhase
13,0,encourage_X2,x,a,False,856,1,11128,subTestPhase
14,0,encourage_X1,x,a,False,1349,1,11128,subTestPhase
15,0,encourage_X3,x,a,False,1126,1,11128,subTestPhase
16,0,encourage_A3,a,a,True,2429,1,11128,subTestPhase
0,0,encourage_Y4,y,b,False,1062,1,11128,testPhase
1,0,encourage_Y1,y,b,False,755,1,11128,testPhase
2,0,encourage_X8,x,a,False,1246,1,11128,testPhase
3,0,encourage_W8,w,a,False,1545,1,11128,testPhase
4,0,encourage_Y6,y,b,False,1641,1,11128,testPhase
5,0,encourage_Z4,z,a,False,1773,1,11128,testPhase
6,0,encourage_A0,a,a,True,957,1,11128,testPhase
7,0,encourage_Y0,y,b,False,934,1,11128,testPhase
8,0,encourage_A2,a,a,True,1511,1,11128,testPhase
9,0,encourage_X2,x,a,False,946,1,11128,testPhase
10,0,encourage_W1,w,a,False,1384,1,11128,testPhase
11,0,encourage_Z6,z,a,False,1790,1,11128,testPhase
12,0,encourage_B2,b,b,True,1179,1,11128,testPhase
13,0,encourage_W0,w,a,False,1552,1,11128,testPhase
14,0,encourage_W5,w,a,False,1032,1,11128,testPhase
15,0,encourage_W6,w,a,False,11294,1,11128,testPhase
16,0,encourage_Y2,y,b,False,996,1,11128,testPhase
17,0,encourage_Z0,z,a,False,1137,1,11128,testPhase
18,0,encourage_Z7,z,a,False,1576,1,11128,testPhase
19,0,encourage_Y8,y,b,False,1554,1,11128,testPhase
20,0,encourage_Y7,y,b,False,1115,1,11128,testPhase
21,0,encourage_Z8,z,a,False,985,1,11128,testPhase
22,0,encourage_Y5,y,b,False,1341,1,11128,testPhase
23,0,encourage_B3,b,b,True,1179,1,11128,testPhase
24,0,encourage_X7,x,a,False,946,1,11128,testPhase
25,0,encourage_X5,x,a,False,667,1,11128,testPhase
26,0,encourage_A3,a,a,True,978,1,11128,testPhase
27,0,encourage_X0,x,a,False,822,1,11128,testPhase
28,0,encourage_A1,a,a,True,1045,1,11128,testPhase
29,0,encourage_W4,w,a,False,780,1,11128,testPhase
30,0,encourage_Y3,y,b,False,1021,1,11128,testPhase
31,0,encourage_X1,x,a,False,997,1,11128,testPhase
32,0,encourage_B1,b,b,True,41811,1,11128,testPhase
33,0,encourage_X4,x,a,False,1261,1,11128,testPhase
34,0,encourage_Z5,z,b,False,1502,1,11128,testPhase
35,0,encourage_Z1,z,a,False,11850,1,11128,testPhase
36,0,encourage_X6,x,a,False,1268,1,11128,testPhase
37,0,encourage_W2,w,a,False,1264,1,11128,testPhase
38,0,encourage_Z3,z,a,False,4249,1,11128,testPhase
39,0,encourage_X3,x,a,False,1362,1,11128,testPhase
40,0,encourage_Z2,z,a,False,7369,1,11128,testPhase
41,0,encourage_B0,b,b,True,4585,1,11128,testPhase
42,0,encourage_W7,w,a,False,1094,1,11128,testPhase
43,0,encourage_W3,w,a,False,1274,1,11128,testPhase
0,0,neutral_A1,a,b,False,2579,3,11236,trainPhase
1,0,neutral_A3,a,a,True,2026,3,11236,trainPhase
2,0,neutral_B1,b,a,False,1554,3,11236,trainPhase
3,0,neutral_B2,b,a,False,1680,3,11236,trainPhase
4,0,neutral_A0,a,b,False,1616,3,11236,trainPhase
5,0,neutral_B0,b,b,True,1177,3,11236,trainPhase
6,0,neutral_A2,a,b,False,1508,3,11236,trainPhase
7,0,neutral_B3,b,b,True,3485,3,11236,trainPhase
0,1,neutral_A0,a,a,True,2350,3,11236,trainPhase
1,1,neutral_B3,b,b,True,2118,3,11236,trainPhase
2,1,neutral_B1,b,a,False,3349,3,11236,trainPhase
3,1,neutral_A2,a,a,True,2858,3,11236,trainPhase
4,1,neutral_A3,a,a,True,1680,3,11236,trainPhase
5,1,neutral_A1,a,a,True,1929,3,11236,trainPhase
6,1,neutral_B2,b,b,True,2185,3,11236,trainPhase
7,1,neutral_B0,b,b,True,2269,3,11236,trainPhase
0,2,neutral_B2,b,b,True,1789,3,11236,trainPhase
1,2,neutral_A2,a,a,True,1418,3,11236,trainPhase
2,2,neutral_A0,a,a,True,2456,3,11236,trainPhase
3,2,neutral_B0,b,b,True,1065,3,11236,trainPhase
4,2,neutral_A3,a,a,True,1385,3,11236,trainPhase
5,2,neutral_B1,b,b,True,1222,3,11236,trainPhase
6,2,neutral_B3,b,b,True,1542,3,11236,trainPhase
7,2,neutral_A1,a,a,True,1664,3,11236,trainPhase
0,3,neutral_A0,a,a,True,1503,3,11236,trainPhase
1,3,neutral_A2,a,a,True,1310,3,11236,trainPhase
0,0,neutral_B3,b,b,True,3827,3,11236,subTestPhase
1,0,neutral_B2,b,b,True,1282,3,11236,subTestPhase
2,0,neutral_A3,a,a,True,1024,3,11236,subTestPhase
3,0,neutral_X3,x,a,False,1109,3,11236,subTestPhase
4,0,neutral_A2,a,a,True,2308,3,11236,subTestPhase
5,0,neutral_X5,x,a,False,1063,3,11236,subTestPhase
6,0,neutral_A0,a,a,True,2345,3,11236,subTestPhase
7,0,neutral_X8,x,a,False,997,3,11236,subTestPhase
8,0,neutral_B0,b,b,True,838,3,11236,subTestPhase
9,0,neutral_B1,b,b,True,782,3,11236,subTestPhase
10,0,neutral_X1,x,a,False,1026,3,11236,subTestPhase
11,0,neutral_X6,x,a,False,1115,3,11236,subTestPhase
12,0,neutral_X2,x,a,False,1346,3,11236,subTestPhase
13,0,neutral_A1,a,a,True,1454,3,11236,subTestPhase
14,0,neutral_X0,x,a,False,1417,3,11236,subTestPhase
15,0,neutral_X4,x,a,False,958,3,11236,subTestPhase
16,0,neutral_X7,x,a,False,1204,3,11236,subTestPhase
0,0,neutral_Z4,z,a,False,1687,3,11236,testPhase
1,0,neutral_A2,a,a,True,1421,3,11236,testPhase
2,0,neutral_W5,w,a,False,3583,3,11236,testPhase
3,0,neutral_W3,w,a,False,902,3,11236,testPhase
4,0,neutral_B0,b,b,True,857,3,11236,testPhase
5,0,neutral_W4,w,a,False,1405,3,11236,testPhase
6,0,neutral_Z6,z,a,False,904,3,11236,testPhase
7,0,neutral_X2,x,a,False,1264,3,11236,testPhase
8,0,neutral_X0,x,a,False,1802,3,11236,testPhase
9,0,neutral_Z8,z,a,False,975,3,11236,testPhase
10,0,neutral_Z2,z,a,False,1727,3,11236,testPhase
11,0,neutral_W1,w,a,False,1390,3,11236,testPhase
12,0,neutral_Z3,z,a,False,1021,3,11236,testPhase
13,0,neutral_Z5,z,a,False,733,3,11236,testPhase
14,0,neutral_Y2,y,b,False,1631,3,11236,testPhase
15,0,neutral_Y7,y,b,False,806,3,11236,testPhase
16,0,neutral_B2,b,b,True,3175,3,11236,testPhase
17,0,neutral_A0,a,a,True,1359,3,11236,testPhase
18,0,neutral_W6,w,a,False,2080,3,11236,testPhase
19,0,neutral_W2,w,b,False,3182,3,11236,testPhase
20,0,neutral_B1,b,b,True,1149,3,11236,testPhase
21,0,neutral_Y1,y,b,False,1149,3,11236,testPhase
22,0,neutral_Y5,y,b,False,805,3,11236,testPhase
23,0,neutral_X3,x,a,False,917,3,11236,testPhase
24,0,neutral_W8,w,a,False,2797,3,11236,testPhase
25,0,neutral_Y3,y,b,False,1346,3,11236,testPhase
26,0,neutral_A3,a,a,True,1470,3,11236,testPhase
27,0,neutral_W0,w,b,False,2614,3,11236,testPhase
28,0,neutral_Y4,y,b,False,1021,3,11236,testPhase
29,0,neutral_Y6,y,b,False,630,3,11236,testPhase
30,0,neutral_W7,w,a,False,1382,3,11236,testPhase
31,0,neutral_Y0,y,b,False,998,3,11236,testPhase
32,0,neutral_X7,x,a,False,1398,3,11236,testPhase
33,0,neutral_X6,x,a,False,859,3,11236,testPhase
34,0,neutral_Z7,z,a,False,1055,3,11236,testPhase
35,0,neutral_Z0,z,a,False,763,3,11236,testPhase
36,0,neutral_Z1,z,a,False,1117,3,11236,testPhase
37,0,neutral_X5,x,a,False,973,3,11236,testPhase
38,0,neutral_X4,x,a,False,2616,3,11236,testPhase
39,0,neutral_B3,b,a,False,1439,3,11236,testPhase
40,0,neutral_X8,x,a,False,1040,3,11236,testPhase
41,0,neutral_Y8,y,b,False,1063,3,11236,testPhase
42,0,neutral_X1,x,a,False,1481,3,11236,testPhase
43,0,neutral_A1,a,a,True,1323,3,11236,testPhase
0,0,neutral_A1,a,a,True,3336,3,11237,trainPhase
1,0,neutral_A3,a,b,False,4974,3,11237,trainPhase
2,0,neutral_A2,a,a,True,1684,3,11237,trainPhase
3,0,neutral_B1,b,a,False,1551,3,11237,trainPhase
4,0,neutral_B0,b,b,True,1974,3,11237,trainPhase
5,0,neutral_B3,b,b,True,1756,3,11237,trainPhase
6,0,neutral_A0,a,b,False,1819,3,11237,trainPhase
7,0,neutral_B2,b,b,True,1597,3,11237,trainPhase
0,1,neutral_A1,a,a,True,1488,3,11237,trainPhase
1,1,neutral_B1,b,b,True,1962,3,11237,trainPhase
2,1,neutral_A2,a,a,True,1608,3,11237,trainPhase
3,1,neutral_A3,a,a,True,1581,3,11237,trainPhase
4,1,neutral_B2,b,b,True,1533,3,11237,trainPhase
5,1,neutral_B0,b,b,True,896,3,11237,trainPhase
6,1,neutral_A0,a,b,False,901,3,11237,trainPhase
7,1,neutral_B3,b,b,True,1350,3,11237,trainPhase
0,2,neutral_A2,a,a,True,1592,3,11237,trainPhase
1,2,neutral_B2,b,b,True,939,3,11237,trainPhase
2,2,neutral_B0,b,b,True,1110,3,11237,trainPhase
3,2,neutral_A0,a,a,True,785,3,11237,trainPhase
4,2,neutral_B1,b,b,True,1032,3,11237,trainPhase
5,2,neutral_B3,b,a,False,1939,3,11237,trainPhase
6,2,neutral_A1,a,a,True,1047,3,11237,trainPhase
7,2,neutral_A3,a,a,True,1213,3,11237,trainPhase
0,3,neutral_B1,b,b,True,1032,3,11237,trainPhase
1,3,neutral_A1,a,a,True,1562,3,11237,trainPhase
2,3,neutral_A2,a,b,False,2591,3,11237,trainPhase
3,3,neutral_A3,a,a,True,1021,3,11237,trainPhase
4,3,neutral_B3,b,b,True,1910,3,11237,trainPhase
5,3,neutral_B0,b,b,True,949,3,11237,trainPhase
6,3,neutral_B2,b,b,True,987,3,11237,trainPhase
7,3,neutral_A0,a,a,True,1110,3,11237,trainPhase
0,4,neutral_B3,b,b,True,2204,3,11237,trainPhase
1,4,neutral_A1,a,a,True,1893,3,11237,trainPhase
2,4,neutral_A3,a,b,False,3861,3,11237,trainPhase
3,4,neutral_B2,b,a,False,854,3,11237,trainPhase
4,4,neutral_A2,a,b,False,1608,3,11237,trainPhase
5,4,neutral_B0,b,b,True,1541,3,11237,trainPhase
6,4,neutral_A0,a,a,True,845,3,11237,trainPhase
7,4,neutral_B1,b,b,True,1762,3,11237,trainPhase
0,5,neutral_B2,b,b,True,885,3,11237,trainPhase
1,5,neutral_B0,b,b,True,981,3,11237,trainPhase
2,5,neutral_B1,b,b,True,1198,3,11237,trainPhase
3,5,neutral_B3,b,b,True,727,3,11237,trainPhase
4,5,neutral_A0,a,a,True,1370,3,11237,trainPhase
5,5,neutral_A1,a,a,True,1230,3,11237,trainPhase
6,5,neutral_A2,a,a,True,1744,3,11237,trainPhase
7,5,neutral_A3,a,a,True,755,3,11237,trainPhase
0,6,neutral_B0,b,b,True,1653,3,11237,trainPhase
1,6,neutral_B3,b,b,True,1707,3,11237,trainPhase
2,6,neutral_B1,b,b,True,799,3,11237,trainPhase
3,6,neutral_B2,b,b,True,1046,3,11237,trainPhase
0,0,neutral_X3,x,a,False,4076,3,11237,subTestPhase
1,0,neutral_B0,b,b,True,1229,3,11237,subTestPhase
2,0,neutral_X4,x,a,False,1127,3,11237,subTestPhase
3,0,neutral_X0,x,a,False,1251,3,11237,subTestPhase
4,0,neutral_B1,b,b,True,989,3,11237,subTestPhase
5,0,neutral_A2,a,a,True,9815,3,11237,subTestPhase
6,0,neutral_X5,x,a,False,877,3,11237,subTestPhase
7,0,neutral_A3,a,a,True,1107,3,11237,subTestPhase
8,0,neutral_A0,a,a,True,841,3,11237,subTestPhase
9,0,neutral_X8,x,a,False,795,3,11237,subTestPhase
10,0,neutral_X7,x,a,False,930,3,11237,subTestPhase
11,0,neutral_X1,x,a,False,991,3,11237,subTestPhase
12,0,neutral_X6,x,a,False,10338,3,11237,subTestPhase
13,0,neutral_B3,b,b,True,4118,3,11237,subTestPhase
14,0,neutral_A1,a,a,True,2925,3,11237,subTestPhase
15,0,neutral_X2,x,a,False,768,3,11237,subTestPhase
16,0,neutral_B2,b,b,True,1303,3,11237,subTestPhase
0,0,neutral_A0,a,a,True,1285,3,11237,testPhase
1,0,neutral_W3,w,a,False,1032,3,11237,testPhase
2,0,neutral_W1,w,b,False,3662,3,11237,testPhase
3,0,neutral_X0,x,a,False,1108,3,11237,testPhase
4,0,neutral_W2,w,b,False,748,3,11237,testPhase
5,0,neutral_W6,w,a,False,2675,3,11237,testPhase
6,0,neutral_X6,x,a,False,1470,3,11237,testPhase
7,0,neutral_Y2,y,b,False,2206,3,11237,testPhase
8,0,neutral_Z8,z,b,False,813,3,11237,testPhase
9,0,neutral_W8,w,a,False,3536,3,11237,testPhase
10,0,neutral_Y0,y,b,False,1529,3,11237,testPhase
11,0,neutral_Y7,y,b,False,908,3,11237,testPhase
12,0,neutral_B1,b,b,True,1242,3,11237,testPhase
13,0,neutral_X7,x,a,False,752,3,11237,testPhase
14,0,neutral_Z3,z,b,False,5482,3,11237,testPhase
15,0,neutral_Z6,z,a,False,899,3,11237,testPhase
16,0,neutral_Z2,z,a,False,886,3,11237,testPhase
17,0,neutral_W5,w,a,False,2301,3,11237,testPhase
18,0,neutral_Y5,y,b,False,695,3,11237,testPhase
19,0,neutral_B2,b,b,True,1718,3,11237,testPhase
20,0,neutral_Y8,y,b,False,985,3,11237,testPhase
21,0,neutral_Y4,y,b,False,775,3,11237,testPhase
22,0,neutral_X1,x,a,False,844,3,11237,testPhase
23,0,neutral_Y3,y,b,False,939,3,11237,testPhase
24,0,neutral_X2,x,a,False,1202,3,11237,testPhase
25,0,neutral_B0,b,b,True,1750,3,11237,testPhase
26,0,neutral_X4,x,a,False,944,3,11237,testPhase
27,0,neutral_X5,x,a,False,687,3,11237,testPhase
28,0,neutral_Z7,z,b,False,1126,3,11237,testPhase
29,0,neutral_Z5,z,a,False,2708,3,11237,testPhase
30,0,neutral_X3,x,a,False,859,3,11237,testPhase
31,0,neutral_W7,w,b,False,1009,3,11237,testPhase
32,0,neutral_Z0,z,a,False,1177,3,11237,testPhase
33,0,neutral_W4,w,a,False,1231,3,11237,testPhase
34,0,neutral_A2,a,a,True,911,3,11237,testPhase
35,0,neutral_W0,w,b,False,1479,3,11237,testPhase
36,0,neutral_B3,b,a,False,5074,3,11237,testPhase
37,0,neutral_Z4,z,a,False,1877,3,11237,testPhase
38,0,neutral_A1,a,a,True,1028,3,11237,testPhase
39,0,neutral_Z1,z,b,False,18834,3,11237,testPhase
40,0,neutral_Y1,y,b,False,1022,3,11237,testPhase
41,0,neutral_Y6,y,b,False,820,3,11237,testPhase
42,0,neutral_X8,x,a,False,920,3,11237,testPhase
43,0,neutral_A3,a,a,True,2830,3,11237,testPhase
0,0,neutral_B2,b,b,True,4016,3,11238,trainPhase
1,0,neutral_A0,a,b,False,2759,3,11238,trainPhase
2,0,neutral_B3,b,a,False,2811,3,11238,trainPhase
3,0,neutral_B1,b,b,True,2125,3,11238,trainPhase
4,0,neutral_A2,a,b,False,1746,3,11238,trainPhase
5,0,neutral_A3,a,a,True,1477,3,11238,trainPhase
6,0,neutral_B0,b,b,True,1784,3,11238,trainPhase
7,0,neutral_A1,a,a,True,1222,3,11238,trainPhase
0,1,neutral_B1,b,b,True,1064,3,11238,trainPhase
1,1,neutral_B3,b,b,True,1456,3,11238,trainPhase
2,1,neutral_A1,a,a,True,1538,3,11238,trainPhase
3,1,neutral_A2,a,a,True,1085,3,11238,trainPhase
4,1,neutral_A0,a,a,True,1235,3,11238,trainPhase
5,1,neutral_A3,a,b,False,2086,3,11238,trainPhase
6,1,neutral_B0,b,b,True,1241,3,11238,trainPhase
7,1,neutral_B2,b,b,True,1379,3,11238,trainPhase
0,2,neutral_A0,a,a,True,1077,3,11238,trainPhase
1,2,neutral_A2,a,a,True,1783,3,11238,trainPhase
2,2,neutral_A3,a,a,True,1001,3,11238,trainPhase
3,2,neutral_A1,a,a,True,1765,3,11238,trainPhase
4,2,neutral_B3,b,b,True,2414,3,11238,trainPhase
5,2,neutral_B1,b,b,True,1059,3,11238,trainPhase
6,2,neutral_B2,b,b,True,1037,3,11238,trainPhase
7,2,neutral_B0,b,b,True,809,3,11238,trainPhase
0,3,neutral_A3,a,a,True,1541,3,11238,trainPhase
1,3,neutral_A1,a,a,True,1029,3,11238,trainPhase
2,3,neutral_A2,a,a,True,907,3,11238,trainPhase
3,3,neutral_B3,b,b,True,1041,3,11238,trainPhase
4,3,neutral_B2,b,b,True,789,3,11238,trainPhase
0,0,neutral_A0,a,a,True,1841,3,11238,subTestPhase
1,0,neutral_X7,x,a,False,2656,3,11238,subTestPhase
2,0,neutral_A3,a,a,True,1414,3,11238,subTestPhase
3,0,neutral_X3,x,a,False,1469,3,11238,subTestPhase
4,0,neutral_X8,x,a,False,2054,3,11238,subTestPhase
5,0,neutral_B0,b,b,True,1925,3,11238,subTestPhase
6,0,neutral_X5,x,a,False,1002,3,11238,subTestPhase
7,0,neutral_B3,b,b,True,1509,3,11238,subTestPhase
8,0,neutral_B1,b,b,True,853,3,11238,subTestPhase
9,0,neutral_X1,x,a,False,1488,3,11238,subTestPhase
10,0,neutral_A2,a,a,True,1219,3,11238,subTestPhase
11,0,neutral_X6,x,a,False,1230,3,11238,subTestPhase
12,0,neutral_A1,a,a,True,1471,3,11238,subTestPhase
13,0,neutral_X4,x,a,False,1942,3,11238,subTestPhase
14,0,neutral_X2,x,a,False,676,3,11238,subTestPhase
15,0,neutral_B2,b,b,True,965,3,11238,subTestPhase
16,0,neutral_X0,x,a,False,3678,3,11238,subTestPhase
0,0,neutral_W6,w,b,False,5572,3,11238,testPhase
1,0,neutral_X0,x,a,False,2501,3,11238,testPhase
2,0,neutral_Y7,y,b,False,2025,3,11238,testPhase
3,0,neutral_Z1,z,a,False,9084,3,11238,testPhase
4,0,neutral_Z7,z,a,False,1406,3,11238,testPhase
5,0,neutral_W7,w,b,False,4367,3,11238,testPhase
6,0,neutral_Z4,z,a,False,2142,3,11238,testPhase
7,0,neutral_A3,a,a,True,997,3,11238,testPhase
8,0,neutral_Y0,y,b,False,4292,3,11238,testPhase
9,0,neutral_Z6,z,a,False,1118,3,11238,testPhase
10,0,neutral_B0,b,b,True,4027,3,11238,testPhase
11,0,neutral_Y1,y,b,False,1139,3,11238,testPhase
12,0,neutral_W0,w,b,False,1325,3,11238,testPhase
13,0,neutral_X8,x,a,False,1139,3,11238,testPhase
14,0,neutral_B2,b,b,True,1782,3,11238,testPhase
15,0,neutral_B3,b,b,True,3181,3,11238,testPhase
16,0,neutral_X3,x,a,False,2414,3,11238,testPhase
17,0,neutral_W4,w,b,False,3386,3,11238,testPhase
18,0,neutral_B1,b,b,True,852,3,11238,testPhase
19,0,neutral_Y2,y,b,False,965,3,11238,testPhase
20,0,neutral_X4,x,a,False,1176,3,11238,testPhase
21,0,neutral_A2,a,a,True,3413,3,11238,testPhase
22,0,neutral_X6,x,a,False,1913,3,11238,testPhase
23,0,neutral_Z2,z,a,False,3434,3,11238,testPhase
24,0,neutral_X7,x,a,False,1004,3,11238,testPhase
25,0,neutral_W3,w,b,False,1382,3,11238,testPhase
26,0,neutral_Y4,y,b,False,1502,3,11238,testPhase
27,0,neutral_Y5,y,b,False,830,3,11238,testPhase
28,0,neutral_Y8,y,b,False,805,3,11238,testPhase
29,0,neutral_W5,w,b,False,718,3,11238,testPhase
30,0,neutral_A0,a,a,True,2369,3,11238,testPhase
31,0,neutral_X1,x,a,False,1270,3,11238,testPhase
32,0,neutral_W2,w,b,False,2095,3,11238,testPhase
33,0,neutral_Z0,z,a,False,1981,3,11238,testPhase
34,0,neutral_Z8,z,a,False,1238,3,11238,testPhase
35,0,neutral_Y6,y,b,False,1518,3,11238,testPhase
36,0,neutral_A1,a,a,True,1371,3,11238,testPhase
37,0,neutral_W1,w,b,False,814,3,11238,testPhase
38,0,neutral_W8,w,a,False,2326,3,11238,testPhase
39,0,neutral_X2,x,a,False,1107,3,11238,testPhase
40,0,neutral_Z5,z,a,False,2893,3,11238,testPhase
41,0,neutral_Z3,z,a,False,1054,3,11238,testPhase
42,0,neutral_X5,x,a,False,1962,3,11238,testPhase
43,0,neutral_Y3,y,b,False,1196,3,11238,testPhase
0,0,discourage_A3,a,a,True,5218,2,11239,trainPhase
1,0,discourage_A2,a,a,True,4261,2,11239,trainPhase
2,0,discourage_A1,a,a,True,3125,2,11239,trainPhase
3,0,discourage_B0,b,a,False,2101,2,11239,trainPhase
4,0,discourage_B3,b,b,True,1789,2,11239,trainPhase
5,0,discourage_B2,b,a,False,1701,2,11239,trainPhase
6,0,discourage_A0,a,a,True,2478,2,11239,trainPhase
7,0,discourage_B1,b,b,True,1333,2,11239,trainPhase
0,1,discourage_A0,a,a,True,1556,2,11239,trainPhase
1,1,discourage_B2,b,b,True,3595,2,11239,trainPhase
2,1,discourage_B1,b,b,True,3173,2,11239,trainPhase
3,1,discourage_A1,a,a,True,1307,2,11239,trainPhase
4,1,discourage_B0,b,a,False,3733,2,11239,trainPhase
5,1,discourage_A2,a,b,False,4468,2,11239,trainPhase
6,1,discourage_B3,b,b,True,1253,2,11239,trainPhase
7,1,discourage_A3,a,a,True,1877,2,11239,trainPhase
0,2,discourage_A2,a,a,True,1364,2,11239,trainPhase
1,2,discourage_B3,b,b,True,1589,2,11239,trainPhase
2,2,discourage_B2,b,b,True,4253,2,11239,trainPhase
3,2,discourage_B0,b,b,True,2894,2,11239,trainPhase
4,2,discourage_A3,a,a,True,2271,2,11239,trainPhase
5,2,discourage_B1,b,b,True,1293,2,11239,trainPhase
6,2,discourage_A0,a,a,True,1242,2,11239,trainPhase
7,2,discourage_A1,a,a,True,1277,2,11239,trainPhase
0,3,discourage_A2,a,a,True,2323,2,11239,trainPhase
1,3,discourage_B1,b,b,True,1501,2,11239,trainPhase
2,3,discourage_B0,b,b,True,2161,2,11239,trainPhase
3,3,discourage_A1,a,a,True,997,2,11239,trainPhase
4,3,discourage_B2,b,b,True,1438,2,11239,trainPhase
0,0,discourage_B2,b,b,True,2813,2,11239,subTestPhase
1,0,discourage_B1,b,b,True,1270,2,11239,subTestPhase
2,0,discourage_X1,x,a,False,1542,2,11239,subTestPhase
3,0,discourage_B3,b,b,True,1342,2,11239,subTestPhase
4,0,discourage_A0,a,a,True,1025,2,11239,subTestPhase
5,0,discourage_B0,b,b,True,1429,2,11239,subTestPhase
6,0,discourage_A3,a,a,True,1492,2,11239,subTestPhase
7,0,discourage_X2,x,a,False,1293,2,11239,subTestPhase
8,0,discourage_A1,a,a,True,1198,2,11239,subTestPhase
9,0,discourage_X6,x,a,False,1507,2,11239,subTestPhase
10,0,discourage_X0,x,a,False,1821,2,11239,subTestPhase
11,0,discourage_X7,x,a,False,1342,2,11239,subTestPhase
12,0,discourage_X8,x,a,False,1246,2,11239,subTestPhase
13,0,discourage_X4,x,a,False,1382,2,11239,subTestPhase
14,0,discourage_A2,a,a,True,1691,2,11239,subTestPhase
15,0,discourage_X3,x,a,False,1958,2,11239,subTestPhase
16,0,discourage_X5,x,a,False,1366,2,11239,subTestPhase
0,0,discourage_Z2,z,b,False,1308,2,11239,testPhase
1,0,discourage_W2,w,a,False,1714,2,11239,testPhase
2,0,discourage_W1,w,a,False,1776,2,11239,testPhase
3,0,discourage_X8,x,a,False,1150,2,11239,testPhase
4,0,discourage_X6,x,a,False,1342,2,11239,testPhase
5,0,discourage_Z7,z,b,False,1408,2,11239,testPhase
6,0,discourage_W6,w,b,False,1950,2,11239,testPhase
7,0,discourage_Z6,z,b,False,1198,2,11239,testPhase
8,0,discourage_Y2,y,b,False,1366,2,11239,testPhase
9,0,discourage_X4,x,a,False,1261,2,11239,testPhase
10,0,discourage_Y6,y,b,False,1447,2,11239,testPhase
11,0,discourage_W4,w,a,False,1842,2,11239,testPhase
12,0,discourage_W0,w,a,False,1265,2,11239,testPhase
13,0,discourage_Z1,z,a,False,4151,2,11239,testPhase
14,0,discourage_W5,w,a,False,1332,2,11239,testPhase
15,0,discourage_B3,b,b,True,2017,2,11239,testPhase
16,0,discourage_Y3,y,b,False,1229,2,11239,testPhase
17,0,discourage_A3,a,a,True,1470,2,11239,testPhase
18,0,discourage_Y4,y,b,False,1249,2,11239,testPhase
19,0,discourage_Y5,y,b,False,1096,2,11239,testPhase
20,0,discourage_B0,b,b,True,2617,2,11239,testPhase
21,0,discourage_W3,w,a,False,1175,2,11239,testPhase
22,0,discourage_W7,w,a,False,1306,2,11239,testPhase
23,0,discourage_B1,b,b,True,2490,2,11239,testPhase
24,0,discourage_Y7,y,b,False,1128,2,11239,testPhase
25,0,discourage_Y1,y,b,False,1213,2,11239,testPhase
26,0,discourage_X3,x,a,False,902,2,11239,testPhase
27,0,discourage_Z0,z,a,False,2387,2,11239,testPhase
28,0,discourage_A2,a,a,True,1084,2,11239,testPhase
29,0,discourage_Z3,z,b,False,1525,2,11239,testPhase
30,0,discourage_Y8,y,b,False,1102,2,11239,testPhase
31,0,discourage_A0,a,a,True,958,2,11239,testPhase
32,0,discourage_X5,x,a,False,823,2,11239,testPhase
33,0,discourage_Z5,z,a,False,1497,2,11239,testPhase
34,0,discourage_W8,w,a,False,1529,2,11239,testPhase
35,0,discourage_Z4,z,a,False,1537,2,11239,testPhase
36,0,discourage_X1,x,a,False,1057,2,11239,testPhase
37,0,discourage_Y0,y,b,False,1099,2,11239,testPhase
38,0,discourage_X0,x,a,False,902,2,11239,testPhase
39,0,discourage_A1,a,a,True,1205,2,11239,testPhase
40,0,discourage_X7,x,a,False,860,2,11239,testPhase
41,0,discourage_X2,x,a,False,1053,2,11239,testPhase
42,0,discourage_B2,b,b,True,1421,2,11239,testPhase
43,0,discourage_Z8,z,a,False,1450,2,11239,testPhase
0,0,neutral_A0,a,a,True,5894,3,11240,trainPhase
1,0,neutral_A2,a,a,True,1699,3,11240,trainPhase
2,0,neutral_B2,b,a,False,1668,3,11240,trainPhase
3,0,neutral_A3,a,b,False,2026,3,11240,trainPhase
4,0,neutral_A1,a,a,True,2623,3,11240,trainPhase
5,0,neutral_B0,b,b,True,2989,3,11240,trainPhase
6,0,neutral_B1,b,b,True,1549,3,11240,trainPhase
7,0,neutral_B3,b,b,True,1633,3,11240,trainPhase
0,1,neutral_B2,b,b,True,1255,3,11240,trainPhase
1,1,neutral_A1,a,a,True,1126,3,11240,trainPhase
2,1,neutral_A3,a,a,True,1774,3,11240,trainPhase
3,1,neutral_B1,b,b,True,1173,3,11240,trainPhase
4,1,neutral_B0,b,b,True,1554,3,11240,trainPhase
5,1,neutral_A2,a,a,True,1770,3,11240,trainPhase
6,1,neutral_A0,a,a,True,1222,3,11240,trainPhase
7,1,neutral_B3,b,b,True,1789,3,11240,trainPhase
0,2,neutral_B3,b,b,True,1284,3,11240,trainPhase
1,2,neutral_A1,a,a,True,1320,3,11240,trainPhase
2,2,neutral_B2,b,b,True,1262,3,11240,trainPhase
0,0,neutral_X3,x,a,False,3534,3,11240,subTestPhase
1,0,neutral_X7,x,b,False,1401,3,11240,subTestPhase
2,0,neutral_A2,a,a,True,1352,3,11240,subTestPhase
3,0,neutral_X0,x,b,False,2821,3,11240,subTestPhase
4,0,neutral_X8,x,b,False,1271,3,11240,subTestPhase
5,0,neutral_B3,b,b,True,1708,3,11240,subTestPhase
6,0,neutral_B0,b,b,True,1283,3,11240,subTestPhase
7,0,neutral_X4,x,b,False,5130,3,11240,subTestPhase
8,0,neutral_X5,x,b,False,1175,3,11240,subTestPhase
9,0,neutral_X1,x,b,False,1092,3,11240,subTestPhase
10,0,neutral_B1,b,b,True,1412,3,11240,subTestPhase
11,0,neutral_X2,x,b,False,1416,3,11240,subTestPhase
12,0,neutral_A1,a,a,True,1774,3,11240,subTestPhase
13,0,neutral_A3,a,a,True,1465,3,11240,subTestPhase
14,0,neutral_X6,x,b,False,1811,3,11240,subTestPhase
15,0,neutral_B2,b,b,True,2049,3,11240,subTestPhase
16,0,neutral_A0,a,a,True,1605,3,11240,subTestPhase
0,0,neutral_Y2,y,b,False,4264,3,11240,testPhase
1,0,neutral_Z6,z,a,False,1959,3,11240,testPhase
2,0,neutral_Z3,z,a,False,1363,3,11240,testPhase
3,0,neutral_Y4,y,b,False,2454,3,11240,testPhase
4,0,neutral_X5,x,b,False,1597,3,11240,testPhase
5,0,neutral_X2,x,b,False,1853,3,11240,testPhase
6,0,neutral_Y0,y,b,False,1757,3,11240,testPhase
7,0,neutral_W1,w,a,False,1437,3,11240,testPhase
8,0,neutral_X0,x,b,False,3371,3,11240,testPhase
9,0,neutral_Z1,z,a,False,2046,3,11240,testPhase
10,0,neutral_Z0,z,a,False,865,3,11240,testPhase
11,0,neutral_A2,a,b,False,2589,3,11240,testPhase
12,0,neutral_W8,w,a,False,1205,3,11240,testPhase
13,0,neutral_W2,w,a,False,894,3,11240,testPhase
14,0,neutral_Z7,z,a,False,2819,3,11240,testPhase
15,0,neutral_Z2,z,a,False,1043,3,11240,testPhase
16,0,neutral_X1,x,b,False,1564,3,11240,testPhase
17,0,neutral_Y7,y,b,False,1573,3,11240,testPhase
18,0,neutral_Y1,y,b,False,1086,3,11240,testPhase
19,0,neutral_X8,x,b,False,1715,3,11240,testPhase
20,0,neutral_Z8,z,a,False,1284,3,11240,testPhase
21,0,neutral_X7,x,b,False,1226,3,11240,testPhase
22,0,neutral_X4,x,b,False,966,3,11240,testPhase
23,0,neutral_A1,a,b,False,1718,3,11240,testPhase
24,0,neutral_A0,a,a,True,1102,3,11240,testPhase
25,0,neutral_W6,w,a,False,2781,3,11240,testPhase
26,0,neutral_X3,x,b,False,1144,3,11240,testPhase
27,0,neutral_Y6,y,a,False,1182,3,11240,testPhase
28,0,neutral_Y5,y,b,False,2566,3,11240,testPhase
29,0,neutral_W7,w,a,False,2154,3,11240,testPhase
30,0,neutral_Z4,z,a,False,2374,3,11240,testPhase
31,0,neutral_Y3,y,b,False,1032,3,11240,testPhase
32,0,neutral_A3,a,b,False,3924,3,11240,testPhase
33,0,neutral_W3,w,a,False,1366,3,11240,testPhase
34,0,neutral_W0,w,a,False,824,3,11240,testPhase
35,0,neutral_B3,b,b,True,1419,3,11240,testPhase
36,0,neutral_W5,w,a,False,911,3,11240,testPhase
37,0,neutral_Z5,z,b,False,1038,3,11240,testPhase
38,0,neutral_Y8,y,b,False,2850,3,11240,testPhase
39,0,neutral_W4,w,a,False,1277,3,11240,testPhase
40,0,neutral_B1,b,b,True,1226,3,11240,testPhase
41,0,neutral_X6,x,a,False,995,3,11240,testPhase
42,0,neutral_B2,b,b,True,2264,3,11240,testPhase
43,0,neutral_B0,b,b,True,1133,3,11240,testPhase
0,0,neutral_A0,a,a,True,2118,3,11241,trainPhase
1,0,neutral_B1,b,b,True,2752,3,11241,trainPhase
2,0,neutral_A1,a,a,True,1965,3,11241,trainPhase
3,0,neutral_B2,b,b,True,1262,3,11241,trainPhase
4,0,neutral_B0,b,b,True,1247,3,11241,trainPhase
5,0,neutral_A2,a,b,False,2074,3,11241,trainPhase
6,0,neutral_A3,a,a,True,1516,3,11241,trainPhase
7,0,neutral_B3,b,b,True,2542,3,11241,trainPhase
0,1,neutral_B0,b,b,True,1518,3,11241,trainPhase
1,1,neutral_A3,a,a,True,1108,3,11241,trainPhase
2,1,neutral_A2,a,a,True,1158,3,11241,trainPhase
3,1,neutral_A0,a,a,True,1345,3,11241,trainPhase
4,1,neutral_B1,b,b,True,1885,3,11241,trainPhase
5,1,neutral_B3,b,a,False,1293,3,11241,trainPhase
6,1,neutral_B2,b,b,True,1622,3,11241,trainPhase
7,1,neutral_A1,a,a,True,5574,3,11241,trainPhase
0,2,neutral_B1,b,b,True,1317,3,11241,trainPhase
1,2,neutral_B2,b,b,True,9613,3,11241,trainPhase
2,2,neutral_B0,b,b,True,1083,3,11241,trainPhase
3,2,neutral_B3,b,b,True,1139,3,11241,trainPhase
4,2,neutral_A3,a,b,False,1706,3,11241,trainPhase
5,2,neutral_A2,a,a,True,969,3,11241,trainPhase
6,2,neutral_A1,a,a,True,18051,3,11241,trainPhase
7,2,neutral_A0,a,a,True,9485,3,11241,trainPhase
0,3,neutral_B0,b,b,True,2225,3,11241,trainPhase
1,3,neutral_B3,b,b,True,1054,3,11241,trainPhase
2,3,neutral_B2,b,b,True,792,3,11241,trainPhase
3,3,neutral_A1,a,a,True,1445,3,11241,trainPhase
4,3,neutral_B1,b,b,True,902,3,11241,trainPhase
5,3,neutral_A0,a,a,True,1202,3,11241,trainPhase
6,3,neutral_A3,a,a,True,1294,3,11241,trainPhase
7,3,neutral_A2,a,a,True,1444,3,11241,trainPhase
0,4,neutral_B0,b,b,True,1353,3,11241,trainPhase
1,4,neutral_A2,a,a,True,1052,3,11241,trainPhase
2,4,neutral_B2,b,b,True,862,3,11241,trainPhase
3,4,neutral_A1,a,a,True,1038,3,11241,trainPhase
0,0,neutral_X7,x,a,False,1416,3,11241,subTestPhase
1,0,neutral_B0,b,b,True,1357,3,11241,subTestPhase
2,0,neutral_X4,x,a,False,2138,3,11241,subTestPhase
3,0,neutral_X0,x,a,False,2302,3,11241,subTestPhase
4,0,neutral_B2,b,b,True,1213,3,11241,subTestPhase
5,0,neutral_B1,b,b,True,820,3,11241,subTestPhase
6,0,neutral_A1,a,a,True,970,3,11241,subTestPhase
7,0,neutral_X8,x,a,False,906,3,11241,subTestPhase
8,0,neutral_X5,x,a,False,828,3,11241,subTestPhase
9,0,neutral_A0,a,b,False,976,3,11241,subTestPhase
10,0,neutral_B3,b,b,True,1806,3,11241,subTestPhase
11,0,neutral_X1,x,a,False,815,3,11241,subTestPhase
12,0,neutral_X3,x,a,False,890,3,11241,subTestPhase
13,0,neutral_X2,x,a,False,988,3,11241,subTestPhase
14,0,neutral_A2,a,a,True,665,3,11241,subTestPhase
15,0,neutral_X6,x,a,False,617,3,11241,subTestPhase
16,0,neutral_A3,a,a,True,632,3,11241,subTestPhase
0,0,neutral_X0,x,a,False,2426,3,11241,testPhase
1,0,neutral_X8,x,a,False,747,3,11241,testPhase
2,0,neutral_A1,a,b,False,877,3,11241,testPhase
3,0,neutral_Z7,z,b,False,1798,3,11241,testPhase
4,0,neutral_W4,w,b,False,1890,3,11241,testPhase
5,0,neutral_Y7,y,b,False,1286,3,11241,testPhase
6,0,neutral_Y4,y,b,False,721,3,11241,testPhase
7,0,neutral_X1,x,a,False,1043,3,11241,testPhase
8,0,neutral_B2,b,b,True,1525,3,11241,testPhase
9,0,neutral_W8,w,a,False,830,3,11241,testPhase
10,0,neutral_A2,a,a,True,3950,3,11241,testPhase
11,0,neutral_X5,x,a,False,870,3,11241,testPhase
12,0,neutral_X3,x,a,False,662,3,11241,testPhase
13,0,neutral_Z3,z,a,False,1174,3,11241,testPhase
14,0,neutral_Z2,z,a,False,658,3,11241,testPhase
15,0,neutral_Y3,y,b,False,927,3,11241,testPhase
16,0,neutral_W3,w,a,False,1271,3,11241,testPhase
17,0,neutral_B0,b,b,True,2933,3,11241,testPhase
18,0,neutral_X7,x,a,False,692,3,11241,testPhase
19,0,neutral_W7,w,a,False,432,3,11241,testPhase
20,0,neutral_Y8,y,b,False,1118,3,11241,testPhase
21,0,neutral_Y5,y,b,False,797,3,11241,testPhase
22,0,neutral_B1,b,b,True,1180,3,11241,testPhase
23,0,neutral_Z1,z,a,False,806,3,11241,testPhase
24,0,neutral_B3,b,b,True,1349,3,11241,testPhase
25,0,neutral_A3,a,a,True,1127,3,11241,testPhase
26,0,neutral_A0,a,a,True,688,3,11241,testPhase
27,0,neutral_W5,w,a,False,818,3,11241,testPhase
28,0,neutral_Z0,z,a,False,2633,3,11241,testPhase
29,0,neutral_Y1,y,b,False,1172,3,11241,testPhase
30,0,neutral_W6,w,a,False,1502,3,11241,testPhase
31,0,neutral_Y6,y,b,False,959,3,11241,testPhase
32,0,neutral_X6,x,a,False,1070,3,11241,testPhase
33,0,neutral_X2,x,a,False,724,3,11241,testPhase
34,0,neutral_W1,w,a,False,2408,3,11241,testPhase
35,0,neutral_W2,w,a,False,791,3,11241,testPhase
36,0,neutral_Z4,z,a,False,2506,3,11241,testPhase
37,0,neutral_W0,w,b,False,903,3,11241,testPhase
38,0,neutral_Z8,z,a,False,837,3,11241,testPhase
39,0,neutral_Y0,y,b,False,1085,3,11241,testPhase
40,0,neutral_Y2,y,b,False,910,3,11241,testPhase
41,0,neutral_X4,x,a,False,813,3,11241,testPhase
42,0,neutral_Z6,z,a,False,1213,3,11241,testPhase
43,0,neutral_Z5,z,a,False,538,3,11241,testPhase
0,0,neutral_A0,a,a,True,2403,3,11242,trainPhase
1,0,neutral_B2,b,a,False,2212,3,11242,trainPhase
2,0,neutral_A3,a,b,False,1029,3,11242,trainPhase
3,0,neutral_A2,a,a,True,3716,3,11242,trainPhase
4,0,neutral_B3,b,b,True,2080,3,11242,trainPhase
5,0,neutral_A1,a,a,True,1865,3,11242,trainPhase
6,0,neutral_B0,b,a,False,4144,3,11242,trainPhase
7,0,neutral_B1,b,b,True,1221,3,11242,trainPhase
0,1,neutral_B2,b,a,False,1062,3,11242,trainPhase
1,1,neutral_A2,a,a,True,4613,3,11242,trainPhase
2,1,neutral_B1,b,b,True,2255,3,11242,trainPhase
3,1,neutral_B0,b,b,True,1511,3,11242,trainPhase
4,1,neutral_A1,a,b,False,4460,3,11242,trainPhase
5,1,neutral_A3,a,a,True,1469,3,11242,trainPhase
6,1,neutral_A0,a,a,True,1638,3,11242,trainPhase
7,1,neutral_B3,b,b,True,1491,3,11242,trainPhase
0,2,neutral_A2,a,a,True,1355,3,11242,trainPhase
1,2,neutral_A1,a,a,True,2304,3,11242,trainPhase
2,2,neutral_B1,b,b,True,1282,3,11242,trainPhase
3,2,neutral_B3,b,b,True,1817,3,11242,trainPhase
4,2,neutral_B0,b,b,True,1364,3,11242,trainPhase
5,2,neutral_B2,b,b,True,1711,3,11242,trainPhase
6,2,neutral_A3,a,a,True,1198,3,11242,trainPhase
7,2,neutral_A0,a,a,True,1027,3,11242,trainPhase
0,3,neutral_B3,b,b,True,2452,3,11242,trainPhase
1,3,neutral_A0,a,a,True,1341,3,11242,trainPhase
2,3,neutral_B1,b,b,True,1519,3,11242,trainPhase
3,3,neutral_A2,a,a,True,914,3,11242,trainPhase
0,0,neutral_X7,x,a,False,1820,3,11242,subTestPhase
1,0,neutral_X1,x,a,False,1069,3,11242,subTestPhase
2,0,neutral_A1,a,a,True,643,3,11242,subTestPhase
3,0,neutral_B1,b,b,True,950,3,11242,subTestPhase
4,0,neutral_X6,x,a,False,922,3,11242,subTestPhase
5,0,neutral_B0,b,b,True,2661,3,11242,subTestPhase
6,0,neutral_B3,b,b,True,767,3,11242,subTestPhase
7,0,neutral_X2,x,a,False,1238,3,11242,subTestPhase
8,0,neutral_X4,x,a,False,602,3,11242,subTestPhase
9,0,neutral_X3,x,a,False,1078,3,11242,subTestPhase
10,0,neutral_A3,a,a,True,1014,3,11242,subTestPhase
11,0,neutral_X8,x,a,False,646,3,11242,subTestPhase
12,0,neutral_B2,b,b,True,1067,3,11242,subTestPhase
13,0,neutral_X5,x,a,False,1130,3,11242,subTestPhase
