trial,block,stimId,category,response,rt,condition,id,phase
0,0,neutral_A0,a,2.0,10676,3,11225,typicality
1,0,neutral_Z7,z,2.0,2523,3,11225,typicality
2,0,neutral_X1,x,11.0,5472,3,11225,typicality
3,0,neutral_W7,w,2.0,6801,3,11225,typicality
4,0,neutral_A2,a,2.0,1724,3,11225,typicality
5,0,neutral_A1,a,10.0,6742,3,11225,typicality
6,0,neutral_Y3,y,11.0,5204,3,11225,typicality
7,0,neutral_Y7,y,11.0,1181,3,11225,typicality
8,0,neutral_B2,b,3.0,2480,3,11225,typicality
9,0,neutral_X7,x,12.0,3634,3,11225,typicality
10,0,neutral_W1,w,2.0,2875,3,11225,typicality
11,0,neutral_B1,b,2.0,1971,3,11225,typicality
12,0,neutral_Z5,z,2.0,1286,3,11225,typicality
13,0,neutral_Z3,z,2.0,625,3,11225,typicality
14,0,neutral_W4,w,5.0,5025,3,11225,typicality
15,0,neutral_Y5,y,10.0,1781,3,11225,typicality
16,0,neutral_W3,w,10.0,1338,3,11225,typicality
17,0,neutral_X5,x,10.0,2206,3,11225,typicality
18,0,neutral_Y1,y,10.0,2387,3,11225,typicality
19,0,neutral_X4,x,10.0,1475,3,11225,typicality
20,0,neutral_B3,b,4.0,2154,3,11225,typicality
21,0,neutral_B0,b,4.0,696,3,11225,typicality
22,0,neutral_A3,a,4.0,734,3,11225,typicality
23,0,neutral_X3,x,9.0,2105,3,11225,typicality
24,0,neutral_Z4,z,3.0,3289,3,11225,typicality
25,0,neutral_Z1,z,3.0,922,3,11225,typicality
26,0,neutral_W5,w,3.0,4387,3,11225,typicality
27,0,neutral_Y4,y,10.0,2459,3,11225,typicality
0,0,neutral_W1,w,0.0,17835,3,11226,typicality
1,0,neutral_Z3,z,0.0,11324,3,11226,typicality
2,0,neutral_Y4,y,12.0,6821,3,11226,typicality
3,0,neutral_X5,x,0.0,2604,3,11226,typicality
4,0,neutral_Y5,y,12.0,4961,3,11226,typicality
5,0,neutral_W3,w,2.0,5087,3,11226,typicality
6,0,neutral_Z5,z,2.0,4410,3,11226,typicality
7,0,neutral_A0,a,2.0,5234,3,11226,typicality
8,0,neutral_Z1,z,2.0,2110,3,11226,typicality
9,0,neutral_A2,a,2.0,2560,3,11226,typicality
10,0,neutral_A1,a,2.0,1984,3,11226,typicality
11,0,neutral_B1,b,2.0,2464,3,11226,typicality
12,0,neutral_A3,a,0.9999999999999997,3227,3,11226,typicality
13,0,neutral_X3,x,0.0,2786,3,11226,typicality
14,0,neutral_B3,b,0.9999999999999997,5086,3,11226,typicality
15,0,neutral_X4,x,0.0,2482,3,11226,typicality
16,0,neutral_Z4,z,0.9999999999999997,2747,3,11226,typicality
17,0,neutral_Y7,y,12.0,3198,3,11226,typicality
18,0,neutral_W7,w,3.0,3153,3,11226,typicality
19,0,neutral_Z7,z,2.0,3259,3,11226,typicality
20,0,neutral_Y3,y,12.0,3403,3,11226,typicality
21,0,neutral_W5,w,2.0,3536,3,11226,typicality
22,0,neutral_B0,b,8.0,5297,3,11226,typicality
23,0,neutral_X7,x,0.0,3325,3,11226,typicality
24,0,neutral_B2,b,2.0,3638,3,11226,typicality
25,0,neutral_X1,x,0.0,2358,3,11226,typicality
26,0,neutral_Y1,y,13.0,3617,3,11226,typicality
27,0,neutral_W4,w,2.0,3211,3,11226,typicality
0,0,discourage_X1,x,2.0,8648,2,11227,typicality
1,0,discourage_Z5,z,2.0,1884,2,11227,typicality
2,0,discourage_X7,x,0.9999999999999997,3034,2,11227,typicality
3,0,discourage_A3,a,0.9999999999999997,1739,2,11227,typicality
4,0,discourage_B3,b,2.0,3666,2,11227,typicality
5,0,discourage_Z3,z,0.9999999999999997,4675,2,11227,typicality
6,0,discourage_Y5,y,10.0,3894,2,11227,typicality
7,0,discourage_W7,w,10.0,975,2,11227,typicality
8,0,discourage_W4,w,10.0,650,2,11227,typicality
9,0,discourage_Y7,y,10.0,766,2,11227,typicality
10,0,discourage_B1,b,3.0,3878,2,11227,typicality
11,0,discourage_Y4,y,7.0,3667,2,11227,typicality
12,0,discourage_A1,a,3.0,3529,2,11227,typicality
13,0,discourage_A2,a,0.9999999999999997,2135,2,11227,typicality
14,0,discourage_W1,w,9.0,3570,2,11227,typicality
15,0,discourage_A0,a,2.0,2168,2,11227,typicality
16,0,discourage_Y1,y,9.0,2567,2,11227,typicality
17,0,discourage_X4,x,0.0,2113,2,11227,typicality
18,0,discourage_Z7,z,0.0,491,2,11227,typicality
19,0,discourage_W5,w,9.0,5060,2,11227,typicality
20,0,discourage_W3,w,10.0,1921,2,11227,typicality
21,0,discourage_X5,x,0.9999999999999997,4212,2,11227,typicality
22,0,discourage_Z4,z,0.9999999999999997,953,2,11227,typicality
23,0,discourage_Z1,z,0.9999999999999997,610,2,11227,typicality
24,0,discourage_Y3,y,9.0,4864,2,11227,typicality
25,0,discourage_B2,b,3.0,3240,2,11227,typicality
26,0,discourage_X3,x,0.0,2714,2,11227,typicality
27,0,discourage_B0,b,5.0,6740,2,11227,typicality
0,0,neutral_X1,x,3.0,18013,3,11229,typicality
1,0,neutral_A3,a,3.0,5305,3,11229,typicality
2,0,neutral_A2,a,3.0,1526,3,11229,typicality
3,0,neutral_X4,x,3.0,1703,3,11229,typicality
4,0,neutral_B1,b,9.0,3385,3,11229,typicality
5,0,neutral_Y7,y,10.0,2296,3,11229,typicality
6,0,neutral_Z5,z,3.0,4809,3,11229,typicality
7,0,neutral_W3,w,8.0,7130,3,11229,typicality
8,0,neutral_Y5,y,9.0,2647,3,11229,typicality
9,0,neutral_W5,w,3.0,3299,3,11229,typicality
10,0,neutral_W1,w,3.0,1387,3,11229,typicality
11,0,neutral_B0,b,9.0,3304,3,11229,typicality
12,0,neutral_B2,b,9.0,3314,3,11229,typicality
13,0,neutral_Y3,y,9.0,1267,3,11229,typicality
14,0,neutral_W4,w,3.0,2617,3,11229,typicality
15,0,neutral_Z1,z,3.0,1471,3,11229,typicality
16,0,neutral_A0,a,3.0,922,3,11229,typicality
17,0,neutral_Z4,z,3.0,930,3,11229,typicality
18,0,neutral_X5,x,3.0,2217,3,11229,typicality
19,0,neutral_Y4,y,10.0,3482,3,11229,typicality
20,0,neutral_A1,a,3.0,2362,3,11229,typicality
21,0,neutral_X3,x,2.0,2755,3,11229,typicality
22,0,neutral_X7,x,2.0,674,3,11229,typicality
23,0,neutral_Z7,z,2.0,1083,3,11229,typicality
24,0,neutral_B3,b,4.0,3460,3,11229,typicality
25,0,neutral_Z3,z,4.0,2175,3,11229,typicality
26,0,neutral_Y1,y,10.0,2615,3,11229,typicality
27,0,neutral_W7,w,4.0,2389,3,11229,typicality
0,0,neutral_W3,w,11.0,14578,3,11230,typicality
1,0,neutral_Y4,y,11.0,9409,3,11230,typicality
2,0,neutral_Z4,z,3.0,4931,3,11230,typicality
3,0,neutral_X3,x,0.0,3484,3,11230,typicality
4,0,neutral_Z5,z,2.0,3740,3,11230,typicality
5,0,neutral_X4,x,0.0,3105,3,11230,typicality
6,0,neutral_A1,a,0.9999999999999997,2584,3,11230,typicality
7,0,neutral_W7,w,2.0,2331,3,11230,typicality
8,0,neutral_B3,b,5.0,7172,3,11230,typicality
9,0,neutral_Z1,z,6.0,2433,3,11230,typicality
10,0,neutral_A0,a,3.0,3235,3,11230,typicality
11,0,neutral_Z3,z,5.0,3376,3,11230,typicality
12,0,neutral_Y3,y,13.0,3529,3,11230,typicality
13,0,neutral_B1,b,9.0,4237,3,11230,typicality
14,0,neutral_B2,b,9.0,1270,3,11230,typicality
15,0,neutral_B0,b,9.0,880,3,11230,typicality
16,0,neutral_Y5,y,13.0,3204,3,11230,typicality
17,0,neutral_W5,w,2.0,7505,3,11230,typicality
18,0,neutral_Y1,y,11.0,3058,3,11230,typicality
19,0,neutral_Y7,y,10.0,2063,3,11230,typicality
20,0,neutral_W1,w,2.0,2843,3,11230,typicality
21,0,neutral_W4,w,2.0,4291,3,11230,typicality
22,0,neutral_A3,a,0.9999999999999997,4610,3,11230,typicality
23,0,neutral_X5,x,0.0,2091,3,11230,typicality
24,0,neutral_X1,x,0.0,561,3,11230,typicality
25,0,neutral_Z7,z,4.0,4293,3,11230,typicality
26,0,neutral_X7,x,2.0,1976,3,11230,typicality
27,0,neutral_A2,a,0.9999999999999997,3858,3,11230,typicality
0,0,encourage_Y7,y,10.0,13537,1,11231,typicality
1,0,encourage_Z5,z,4.0,8136,1,11231,typicality
2,0,encourage_Y3,y,12.0,5504,1,11231,typicality
3,0,encourage_B3,b,11.0,5826,1,11231,typicality
4,0,encourage_Y4,y,13.0,3215,1,11231,typicality
5,0,encourage_A1,a,2.0,3084,1,11231,typicality
6,0,encourage_A2,a,2.0,2486,1,11231,typicality
7,0,encourage_Y1,y,11.0,7750,1,11231,typicality
8,0,encourage_Y5,y,10.0,6922,1,11231,typicality
9,0,encourage_B1,b,8.0,4632,1,11231,typicality
10,0,encourage_W1,w,5.0,3650,1,11231,typicality
11,0,encourage_Z4,z,4.0,4345,1,11231,typicality
12,0,encourage_X1,x,3.0,2106,1,11231,typicality
13,0,encourage_W5,w,3.0,2352,1,11231,typicality
14,0,encourage_B2,b,4.0,5934,1,11231,typicality
15,0,encourage_Z7,z,2.0,2898,1,11231,typicality
16,0,encourage_W7,w,3.0,4921,1,11231,typicality
17,0,encourage_W3,w,4.0,1915,1,11231,typicality
18,0,encourage_X7,x,0.9999999999999997,2317,1,11231,typicality
19,0,encourage_X4,x,0.9999999999999997,1600,1,11231,typicality
20,0,encourage_X5,x,0.9999999999999997,1764,1,11231,typicality
21,0,encourage_Z1,z,2.0,2839,1,11231,typicality
22,0,encourage_B0,b,3.0,2674,1,11231,typicality
23,0,encourage_A0,a,3.0,2197,1,11231,typicality
24,0,encourage_X3,x,2.0,3076,1,11231,typicality
25,0,encourage_Z3,z,2.0,3679,1,11231,typicality
26,0,encourage_A3,a,2.0,1650,1,11231,typicality
27,0,encourage_W4,w,2.0,1530,1,11231,typicality
0,0,neutral_X1,x,0.0,15460,3,11232,typicality
1,0,neutral_A0,a,0.0,2851,3,11232,typicality
2,0,neutral_W3,w,2.0,2983,3,11232,typicality
3,0,neutral_B2,b,4.0,5082,3,11232,typicality
4,0,neutral_A1,a,3.0,2233,3,11232,typicality
5,0,neutral_A2,a,2.0,3711,3,11232,typicality
6,0,neutral_Z1,z,4.0,2598,3,11232,typicality
7,0,neutral_B0,b,7.0,4098,3,11232,typicality
8,0,neutral_Z7,z,3.0,3524,3,11232,typicality
9,0,neutral_B1,b,8.0,3782,3,11232,typicality
10,0,neutral_X3,x,0.9999999999999997,3029,3,11232,typicality
11,0,neutral_Y3,y,13.0,2761,3,11232,typicality
12,0,neutral_Z4,z,3.0,3046,3,11232,typicality
13,0,neutral_W1,w,0.0,2209,3,11232,typicality
14,0,neutral_X7,x,0.0,1171,3,11232,typicality
15,0,neutral_W4,w,0.0,852,3,11232,typicality
16,0,neutral_Z5,z,2.0,3233,3,11232,typicality
17,0,neutral_A3,a,3.0,1789,3,11232,typicality
18,0,neutral_X4,x,0.0,2298,3,11232,typicality
19,0,neutral_W7,w,0.0,1394,3,11232,typicality
20,0,neutral_Y4,y,13.0,2342,3,11232,typicality
21,0,neutral_Z3,z,4.0,2872,3,11232,typicality
22,0,neutral_Y7,y,9.0,3173,3,11232,typicality
23,0,neutral_Y1,y,13.0,2268,3,11232,typicality
24,0,neutral_Y5,y,13.0,792,3,11232,typicality
25,0,neutral_W5,w,0.0,2428,3,11232,typicality
26,0,neutral_B3,b,4.0,2996,3,11232,typicality
27,0,neutral_X5,x,0.0,1846,3,11232,typicality
0,0,neutral_Z7,z,9.0,15488,3,11233,typicality
1,0,neutral_Z4,z,9.0,1834,3,11233,typicality
2,0,neutral_W5,w,2.0,3146,3,11233,typicality
3,0,neutral_X4,x,0.0,3884,3,11233,typicality
4,0,neutral_A1,a,0.0,736,3,11233,typicality
5,0,neutral_B3,b,5.0,3311,3,11233,typicality
6,0,neutral_Z5,z,7.0,4442,3,11233,typicality
7,0,neutral_B1,b,5.0,2346,3,11233,typicality
8,0,neutral_X1,x,2.0,2458,3,11233,typicality
9,0,neutral_W3,w,3.0,2252,3,11233,typicality
10,0,neutral_Y4,y,8.0,7387,3,11233,typicality
11,0,neutral_A3,a,5.0,4139,3,11233,typicality
12,0,neutral_Z3,z,11.0,2665,3,11233,typicality
13,0,neutral_A2,a,5.0,2643,3,11233,typicality
14,0,neutral_X3,x,0.9999999999999997,3362,3,11233,typicality
15,0,neutral_W1,w,4.0,3451,3,11233,typicality
16,0,neutral_W7,w,4.0,1017,3,11233,typicality
17,0,neutral_A0,a,4.0,1006,3,11233,typicality
18,0,neutral_Y3,y,8.0,2444,3,11233,typicality
19,0,neutral_Y1,y,6.0,1762,3,11233,typicality
20,0,neutral_Y7,y,6.0,1673,3,11233,typicality
21,0,neutral_Z1,z,6.0,2598,3,11233,typicality
22,0,neutral_X7,x,0.0,2888,3,11233,typicality
23,0,neutral_B0,b,4.0,2670,3,11233,typicality
24,0,neutral_X5,x,0.9999999999999997,1526,3,11233,typicality
25,0,neutral_B2,b,4.0,2907,3,11233,typicality
26,0,neutral_Y5,y,7.0,2267,3,11233,typicality
27,0,neutral_W4,w,4.0,6668,3,11233,typicality
0,0,neutral_Z4,z,3.0,14568,3,11234,typicality
1,0,neutral_Y1,y,13.0,2578,3,11234,typicality
2,0,neutral_A0,a,0.0,2991,3,11234,typicality
3,0,neutral_B0,b,2.0,3630,3,11234,typicality
4,0,neutral_Y4,y,13.0,2642,3,11234,typicality
5,0,neutral_Y5,y,13.0,2155,3,11234,typicality
6,0,neutral_B2,b,11.0,3960,3,11234,typicality
7,0,neutral_W4,w,0.0,4098,3,11234,typicality
8,0,neutral_A2,a,2.0,7235,3,11234,typicality
9,0,neutral_B3,b,2.0,798,3,11234,typicality
10,0,neutral_Y7,y,13.0,2703,3,11234,typicality
11,0,neutral_X5,x,0.0,3258,3,11234,typicality
12,0,neutral_X1,x,0.0,1450,3,11234,typicality
13,0,neutral_Z1,z,13.0,2603,3,11234,typicality
14,0,neutral_X4,x,0.0,3779,3,11234,typicality
15,0,neutral_W1,w,0.0,1793,3,11234,typicality
16,0,neutral_Z5,z,13.0,1993,3,11234,typicality
17,0,neutral_W5,w,0.0,4426,3,11234,typicality
18,0,neutral_A3,a,2.0,2707,3,11234,typicality
19,0,neutral_B1,b,2.0,1431,3,11234,typicality
20,0,neutral_W7,w,0.0,2578,3,11234,typicality
21,0,neutral_Z7,z,2.0,2246,3,11234,typicality
22,0,neutral_Z3,z,2.0,1075,3,11234,typicality
23,0,neutral_W3,w,0.0,2434,3,11234,typicality
24,0,neutral_Y3,y,13.0,3115,3,11234,typicality
25,0,neutral_X3,x,2.0,3403,3,11234,typicality
26,0,neutral_A1,a,0.0,2019,3,11234,typicality
27,0,neutral_X7,x,0.0,1162,3,11234,typicality
0,0,encourage_W7,w,0.0,13731,1,11235,typicality
1,0,encourage_A1,a,0.0,1497,1,11235,typicality
2,0,encourage_X7,x,0.0,2677,1,11235,typicality
3,0,encourage_Z3,z,7.0,19590,1,11235,typicality
4,0,encourage_Z7,z,13.0,7602,1,11235,typicality
5,0,encourage_Z1,z,13.0,1478,1,11235,typicality
6,0,encourage_B0,b,12.0,6594,1,11235,typicality
7,0,encourage_W1,w,5.0,7135,1,11235,typicality
8,0,encourage_Y5,y,9.0,12027,1,11235,typicality
9,0,encourage_W5,w,4.0,2595,1,11235,typicality
10,0,encourage_Y4,y,10.0,3395,1,11235,typicality
11,0,encourage_X1,x,0.9999999999999997,2656,1,11235,typicality
12,0,encourage_Z4,z,13.0,3918,1,11235,typicality
13,0,encourage_W3,w,0.0,2650,1,11235,typicality
14,0,encourage_B1,b,2.0,3042,1,11235,typicality
15,0,encourage_W4,w,2.0,1267,1,11235,typicality
16,0,encourage_A3,a,2.0,1269,1,11235,typicality
17,0,encourage_Y1,y,13.0,3993,1,11235,typicality
18,0,encourage_X4,x,0.0,3256,1,11235,typicality
19,0,encourage_A2,a,3.0,2858,1,11235,typicality
20,0,encourage_Y3,y,10.0,3898,1,11235,typicality
21,0,encourage_X3,x,0.0,4195,1,11235,typicality
22,0,encourage_B2,b,0.0,3186,1,11235,typicality
23,0,encourage_X5,x,0.0,1227,1,11235,typicality
24,0,encourage_B3,b,12.0,3265,1,11235,typicality
25,0,encourage_Z5,z,12.0,1475,1,11235,typicality
26,0,encourage_Y7,y,13.0,2985,1,11235,typicality
27,0,encourage_A0,a,0.0,2866,1,11235,typicality
0,0,neutral_W5,w,4.0,18659,3,11236,typicality
1,0,neutral_Z3,z,3.0,4563,3,11236,typicality
2,0,neutral_X5,x,3.0,4058,3,11236,typicality
3,0,neutral_W7,w,4.0,3439,3,11236,typicality
4,0,neutral_W3,w,4.0,1372,3,11236,typicality
5,0,neutral_W4,w,4.0,1802,3,11236,typicality
6,0,neutral_X1,x,3.0,3042,3,11236,typicality
7,0,neutral_A1,a,3.0,1938,3,11236,typicality
8,0,neutral_W1,w,4.0,1984,3,11236,typicality
9,0,neutral_B2,b,3.0,4295,3,11236,typicality
10,0,neutral_X3,x,2.0,4396,3,11236,typicality
11,0,neutral_Z7,z,2.0,1337,3,11236,typicality
12,0,neutral_B0,b,2.0,778,3,11236,typicality
13,0,neutral_Y3,y,11.0,5148,3,11236,typicality
14,0,neutral_Y5,y,11.0,743,3,11236,typicality
15,0,neutral_Z4,z,3.0,3050,3,11236,typicality
16,0,neutral_Y1,y,8.0,2665,3,11236,typicality
17,0,neutral_A3,a,2.0,3330,3,11236,typicality
18,0,neutral_Z1,z,2.0,1110,3,11236,typicality
19,0,neutral_X4,x,2.0,678,3,11236,typicality
20,0,neutral_B1,b,2.0,669,3,11236,typicality
21,0,neutral_X7,x,2.0,825,3,11236,typicality
22,0,neutral_A2,a,2.0,624,3,11236,typicality
23,0,neutral_Z5,z,2.0,615,3,11236,typicality
24,0,neutral_Y7,y,13.0,3245,3,11236,typicality
25,0,neutral_A0,a,4.0,3634,3,11236,typicality
26,0,neutral_Y4,y,10.0,2521,3,11236,typicality
27,0,neutral_B3,b,10.0,1648,3,11236,typicality
0,0,neutral_Z4,z,4.0,34602,3,11237,typicality
1,0,neutral_W4,w,0.0,6454,3,11237,typicality
2,0,neutral_W1,w,0.0,3321,3,11237,typicality
3,0,neutral_W7,w,0.0,1514,3,11237,typicality
4,0,neutral_Y3,y,13.0,4803,3,11237,typicality
5,0,neutral_X7,x,0.0,4539,3,11237,typicality
6,0,neutral_A1,a,0.0,2147,3,11237,typicality
7,0,neutral_W5,w,0.0,820,3,11237,typicality
8,0,neutral_A2,a,2.0,18274,3,11237,typicality
9,0,neutral_Z3,z,4.0,4279,3,11237,typicality
10,0,neutral_A3,a,3.0,3410,3,11237,typicality
11,0,neutral_X5,x,0.9999999999999997,4578,3,11237,typicality
12,0,neutral_B1,b,2.0,3832,3,11237,typicality
13,0,neutral_Y7,y,11.0,4982,3,11237,typicality
14,0,neutral_Y5,y,11.0,2255,3,11237,typicality
15,0,neutral_Y1,y,12.0,2785,3,11237,typicality
16,0,neutral_X1,x,2.0,4297,3,11237,typicality
17,0,neutral_Y4,y,13.0,8570,3,11237,typicality
18,0,neutral_Z7,z,8.0,4010,3,11237,typicality
19,0,neutral_B2,b,5.0,8622,3,11237,typicality
20,0,neutral_Z5,z,4.0,5724,3,11237,typicality
21,0,neutral_X3,x,3.0,4017,3,11237,typicality
22,0,neutral_A0,a,2.0,3023,3,11237,typicality
23,0,neutral_Z1,z,4.0,3239,3,11237,typicality
24,0,neutral_W3,w,5.0,5154,3,11237,typicality
25,0,neutral_B0,b,4.0,3925,3,11237,typicality
26,0,neutral_B3,b,4.0,668,3,11237,typicality
27,0,neutral_X4,x,0.0,2930,3,11237,typicality
0,0,neutral_Y3,y,13.0,11281,3,11238,typicality
1,0,neutral_X5,x,0.0,11161,3,11238,typicality
2,0,neutral_B1,b,10.0,10273,3,11238,typicality
3,0,neutral_B0,b,10.0,5241,3,11238,typicality
4,0,neutral_Z7,z,5.0,11429,3,11238,typicality
5,0,neutral_Y5,y,12.0,5418,3,11238,typicality
6,0,neutral_X7,x,0.0,5101,3,11238,typicality
7,0,neutral_A1,a,0.9999999999999997,7577,3,11238,typicality
8,0,neutral_Z3,z,4.0,4588,3,11238,typicality
9,0,neutral_Z4,z,4.0,1786,3,11238,typicality
10,0,neutral_X3,x,3.0,6996,3,11238,typicality
11,0,neutral_W3,w,9.0,8288,3,11238,typicality
12,0,neutral_X4,x,0.9999999999999997,7138,3,11238,typicality
13,0,neutral_W7,w,5.0,7082,3,11238,typicality
14,0,neutral_X1,x,3.0,5317,3,11238,typicality
15,0,neutral_Z1,z,4.0,4500,3,11238,typicality
16,0,neutral_A0,a,3.0,5990,3,11238,typicality
17,0,neutral_W4,w,8.0,4603,3,11238,typicality
18,0,neutral_Y4,y,9.0,10035,3,11238,typicality
19,0,neutral_Y1,y,12.0,7112,3,11238,typicality
20,0,neutral_W1,w,8.0,3376,3,11238,typicality
21,0,neutral_A3,a,4.0,3538,3,11238,typicality
22,0,neutral_W5,w,8.0,5177,3,11238,typicality
23,0,neutral_A2,a,4.0,4906,3,11238,typicality
24,0,neutral_Z5,z,5.0,4211,3,11238,typicality
25,0,neutral_B2,b,4.0,4766,3,11238,typicality
26,0,neutral_B3,b,4.0,4047,3,11238,typicality
27,0,neutral_Y7,y,10.0,4436,3,11238,typicality
0,0,discourage_W3,w,4.0,17338,2,11239,typicality
1,0,discourage_X5,x,0.9999999999999997,4938,2,11239,typicality
2,0,discourage_Y3,y,12.0,5005,2,11239,typicality
3,0,discourage_Z3,z,4.0,6295,2,11239,typicality
4,0,discourage_A1,a,2.0,5405,2,11239,typicality
5,0,discourage_Y5,y,11.0,4089,2,11239,typicality
6,0,discourage_X1,x,2.0,4738,2,11239,typicality
7,0,discourage_Z5,z,3.0,2654,2,11239,typicality
8,0,discourage_A3,a,3.0,1510,2,11239,typicality
9,0,discourage_W4,w,0.9999999999999997,3249,2,11239,typicality
10,0,discourage_B2,b,3.0,3586,2,11239,typicality
11,0,discourage_A2,a,3.0,1199,2,11239,typicality
12,0,discourage_X7,x,2.0,3121,2,11239,typicality
13,0,discourage_W5,w,0.9999999999999997,3417,2,11239,typicality
14,0,discourage_Z4,z,4.0,5951,2,11239,typicality
15,0,discourage_B3,b,4.0,2426,2,11239,typicality
16,0,discourage_W1,w,2.0,3251,2,11239,typicality
17,0,discourage_Y4,y,11.0,3647,2,11239,typicality
18,0,discourage_X4,x,3.0,2769,2,11239,typicality
19,0,discourage_Z1,z,4.0,2633,2,11239,typicality
20,0,discourage_A0,a,0.9999999999999997,2627,2,11239,typicality
21,0,discourage_W7,w,0.9999999999999997,1259,2,11239,typicality
22,0,discourage_B0,b,9.0,8202,2,11239,typicality
23,0,discourage_Y1,y,12.0,2751,2,11239,typicality
24,0,discourage_B1,b,10.0,4153,2,11239,typicality
25,0,discourage_Y7,y,11.0,2920,2,11239,typicality
26,0,discourage_X3,x,3.0,3219,2,11239,typicality
27,0,discourage_Z7,z,3.0,2411,2,11239,typicality
0,0,neutral_X7,x,13.0,10960,3,11240,typicality
1,0,neutral_A3,a,8.0,7387,3,11240,typicality
2,0,neutral_A0,a,0.0,3130,3,11240,typicality
3,0,neutral_Y7,y,11.0,4386,3,11240,typicality
4,0,neutral_X3,x,11.0,7382,3,11240,typicality
5,0,neutral_W4,w,0.0,4306,3,11240,typicality
6,0,neutral_X5,x,13.0,3240,3,11240,typicality
7,0,neutral_Y3,y,10.0,5010,3,11240,typicality
8,0,neutral_Z4,z,3.0,3051,3,11240,typicality
9,0,neutral_B2,b,8.0,14327,3,11240,typicality
10,0,neutral_W5,w,0.0,2778,3,11240,typicality
11,0,neutral_Z5,z,2.0,5773,3,11240,typicality
12,0,neutral_Y4,y,12.0,3068,3,11240,typicality
13,0,neutral_A1,a,11.0,9793,3,11240,typicality
14,0,neutral_W7,w,0.0,2363,3,11240,typicality
15,0,neutral_Z3,z,2.0,3915,3,11240,typicality
16,0,neutral_X4,x,12.0,4505,3,11240,typicality
17,0,neutral_Z7,z,0.9999999999999997,2930,3,11240,typicality
18,0,neutral_B1,b,8.0,7682,3,11240,typicality
19,0,neutral_X1,x,12.0,3875,3,11240,typicality
20,0,neutral_B0,b,8.0,5165,3,11240,typicality
21,0,neutral_Y1,y,12.0,3531,3,11240,typicality
22,0,neutral_A2,a,4.0,4826,3,11240,typicality
23,0,neutral_B3,b,4.0,4348,3,11240,typicality
24,0,neutral_W3,w,0.0,2867,3,11240,typicality
25,0,neutral_Y5,y,12.0,2986,3,11240,typicality
26,0,neutral_Z1,z,2.0,3751,3,11240,typicality
27,0,neutral_W1,w,0.0,3465,3,11240,typicality
0,0,neutral_X3,x,2.0,16728,3,11241,typicality
1,0,neutral_B0,b,5.0,5021,3,11241,typicality
2,0,neutral_Z5,z,3.0,4678,3,11241,typicality
3,0,neutral_A2,a,2.0,3067,3,11241,typicality
4,0,neutral_Z7,z,4.0,3215,3,11241,typicality
5,0,neutral_X4,x,0.0,2453,3,11241,typicality
6,0,neutral_Y3,y,13.0,5985,3,11241,typicality
7,0,neutral_Z1,z,5.0,10919,3,11241,typicality
8,0,neutral_Y4,y,13.0,3731,3,11241,typicality
9,0,neutral_B3,b,9.0,17635,3,11241,typicality
10,0,neutral_A0,a,0.0,7624,3,11241,typicality
11,0,neutral_B1,b,3.0,3725,3,11241,typicality
12,0,neutral_Y5,y,9.0,2687,3,11241,typicality
13,0,neutral_W1,w,7.0,3171,3,11241,typicality
14,0,neutral_W4,w,7.0,2131,3,11241,typicality
15,0,neutral_A1,a,0.0,6876,3,11241,typicality
16,0,neutral_X5,x,0.0,1253,3,11241,typicality
17,0,neutral_Y7,y,13.0,5122,3,11241,typicality
18,0,neutral_W5,w,4.0,6791,3,11241,typicality
19,0,neutral_X7,x,0.0,3031,3,11241,typicality
20,0,neutral_Z3,z,4.0,3899,3,11241,typicality
21,0,neutral_X1,x,0.0,3161,3,11241,typicality
22,0,neutral_B2,b,8.0,2580,3,11241,typicality
23,0,neutral_W7,w,7.0,3938,3,11241,typicality
24,0,neutral_W3,w,0.0,4914,3,11241,typicality
25,0,neutral_Z4,z,13.0,2468,3,11241,typicality
26,0,neutral_Y1,y,13.0,1098,3,11241,typicality
27,0,neutral_A3,a,4.0,2356,3,11241,typicality
0,0,neutral_Y7,y,11.0,9940,3,11242,typicality
1,0,neutral_X5,x,0.9999999999999997,2905,3,11242,typicality
2,0,neutral_X4,x,0.9999999999999997,906,3,11242,typicality
3,0,neutral_Z5,z,4.0,5413,3,11242,typicality
4,0,neutral_X3,x,0.9999999999999997,3051,3,11242,typicality
5,0,neutral_A3,a,2.0,2174,3,11242,typicality
6,0,neutral_X1,x,0.9999999999999997,1858,3,11242,typicality
7,0,neutral_A2,a,2.0,2228,3,11242,typicality
8,0,neutral_B1,b,3.0,2109,3,11242,typicality
9,0,neutral_Y4,y,10.0,4026,3,11242,typicality
10,0,neutral_A1,a,4.0,2171,3,11242,typicality
11,0,neutral_W5,w,3.0,2746,3,11242,typicality
12,0,neutral_Y1,y,12.0,3738,3,11242,typicality
13,0,neutral_Z7,z,5.0,3388,3,11242,typicality
14,0,neutral_Y5,y,10.0,4490,3,11242,typicality
15,0,neutral_B2,b,5.0,5218,3,11242,typicality
16,0,neutral_X7,x,0.9999999999999997,5058,3,11242,typicality
17,0,neutral_W7,w,2.0,3513,3,11242,typicality
18,0,neutral_Z1,z,4.0,2281,3,11242,typicality
19,0,neutral_Z4,z,4.0,669,3,11242,typicality
20,0,neutral_W3,w,2.0,3873,3,11242,typicality
21,0,neutral_Z3,z,2.0,1762,3,11242,typicality
22,0,neutral_B0,b,2.0,1471,3,11242,typicality
23,0,neutral_W4,w,2.0,1024,3,11242,typicality
24,0,neutral_Y3,y,11.0,3982,3,11242,typicality
25,0,neutral_B3,b,5.0,4562,3,11242,typicality
26,0,neutral_A0,a,2.0,2738,3,11242,typicality
27,0,neutral_W1,w,2.0,1763,3,11242,typicality
0,0,neutral_A3,a,6.5,11509,3,11243,typicality
1,0,neutral_W5,w,5.0,4364,3,11243,typicality
2,0,neutral_Z5,z,6.0,2412,3,11243,typicality
3,0,neutral_W4,w,5.0,2197,3,11243,typicality
4,0,neutral_A2,a,4.0,2194,3,11243,typicality
5,0,neutral_X3,x,2.0,2203,3,11243,typicality
6,0,neutral_Z7,z,5.0,3194,3,11243,typicality
7,0,neutral_Y1,y,10.0,2670,3,11243,typicality
8,0,neutral_W7,w,6.0,2106,3,11243,typicality
9,0,neutral_X7,x,0.0,1970,3,11243,typicality
10,0,neutral_Y5,y,10.0,2714,3,11243,typicality
11,0,neutral_Y4,y,11.0,2219,3,11243,typicality
12,0,neutral_Z4,z,6.0,2482,3,11243,typicality
13,0,neutral_B3,b,5.0,2178,3,11243,typicality
14,0,neutral_X4,x,0.9999999999999997,1779,3,11243,typicality
15,0,neutral_B2,b,4.0,2266,3,11243,typicality
16,0,neutral_B1,b,6.0,1635,3,11243,typicality
17,0,neutral_X1,x,4.0,1915,3,11243,typicality
18,0,neutral_A0,a,5.0,1779,3,11243,typicality
19,0,neutral_X5,x,3.0,2219,3,11243,typicality
20,0,neutral_Z1,z,5.0,2190,3,11243,typicality
21,0,neutral_B0,b,6.0,3811,3,11243,typicality
22,0,neutral_Z3,z,6.0,2339,3,11243,typicality
23,0,neutral_Y7,y,8.0,3115,3,11243,typicality
24,0,neutral_W1,w,6.0,1675,3,11243,typicality
25,0,neutral_A1,a,5.0,1587,3,11243,typicality
26,0,neutral_Y3,y,12.0,4491,3,11243,typicality
27,0,neutral_W3,w,6.0,2555,3,11243,typicality
0,0,encourage_W5,w,4.0,13207,1,11245,typicality
1,0,encourage_W1,w,4.0,3372,1,11245,typicality
2,0,encourage_Z4,z,2.0,3386,1,11245,typicality
3,0,encourage_B3,b,6.0,2930,1,11245,typicality
4,0,encourage_W7,w,5.0,3186,1,11245,typicality
5,0,encourage_Z7,z,0.9999999999999997,4594,1,11245,typicality
6,0,encourage_Y7,y,7.0,2939,1,11245,typicality
7,0,encourage_B2,b,7.0,57,1,11245,typicality
8,0,encourage_A0,a,3.0,4145,1,11245,typicality
9,0,encourage_Z1,z,2.0,2130,1,11245,typicality
10,0,encourage_X5,x,0.9999999999999997,2706,1,11245,typicality
11,0,encourage_X7,x,0.9999999999999997,1292,1,11245,typicality
12,0,encourage_B1,b,3.0,2854,1,11245,typicality
13,0,encourage_Y4,y,6.0,2277,1,11245,typicality
14,0,encourage_Y1,y,10.0,3910,1,11245,typicality
15,0,encourage_Y5,y,10.0,1123,1,11245,typicality
16,0,encourage_Y3,y,10.0,522,1,11245,typicality
17,0,encourage_A1,a,4.0,3050,1,11245,typicality
18,0,encourage_A3,a,3.0,2106,1,11245,typicality
19,0,encourage_B0,b,6.0,3683,1,11245,typicality
20,0,encourage_X4,x,4.0,2717,1,11245,typicality
21,0,encourage_Z3,z,5.0,1859,1,11245,typicality
22,0,encourage_W3,w,7.0,2707,1,11245,typicality
23,0,encourage_Z5,z,4.0,2433,1,11245,typicality
24,0,encourage_X1,x,3.0,3172,1,11245,typicality
25,0,encourage_W4,w,5.0,2113,1,11245,typicality
26,0,encourage_X3,x,3.0,1826,1,11245,typicality
27,0,encourage_A2,a,3.0,3931,1,11245,typicality
0,0,discourage_A3,a,3.0,20971,2,11246,typicality
1,0,discourage_B0,b,2.0,8235,2,11246,typicality
2,0,discourage_Z1,z,4.0,6567,2,11246,typicality
3,0,discourage_W4,w,5.0,9677,2,11246,typicality
4,0,discourage_B3,b,3.0,8709,2,11246,typicality
5,0,discourage_W7,w,5.0,3397,2,11246,typicality
6,0,discourage_W5,w,6.0,2506,2,11246,typicality
7,0,discourage_Z5,z,3.0,5971,2,11246,typicality
8,0,discourage_Y3,y,11.0,4466,2,11246,typicality
9,0,discourage_W1,w,7.0,5154,2,11246,typicality
10,0,discourage_X7,x,0.9999999999999997,3586,2,11246,typicality
11,0,discourage_Y5,y,12.0,9441,2,11246,typicality
12,0,discourage_Y1,y,11.0,5026,2,11246,typicality
13,0,discourage_Z4,z,3.0,3507,2,11246,typicality
14,0,discourage_Z3,z,4.0,5124,2,11246,typicality
15,0,discourage_X5,x,2.0,7756,2,11246,typicality
16,0,discourage_B1,b,0.9999999999999997,4674,2,11246,typicality
17,0,discourage_A1,a,2.0,5112,2,11246,typicality
18,0,discourage_A2,a,0.9999999999999997,18117,2,11246,typicality
19,0,discourage_X1,x,0.9999999999999997,7750,2,11246,typicality
20,0,discourage_W3,w,4.0,4661,2,11246,typicality
21,0,discourage_Z7,z,4.0,7075,2,11246,typicality
22,0,discourage_Y7,y,8.0,5050,2,11246,typicality
23,0,discourage_X4,x,2.0,8936,2,11246,typicality
24,0,discourage_A0,a,3.0,11821,2,11246,typicality
25,0,discourage_Y4,y,11.0,5585,2,11246,typicality
26,0,discourage_X3,x,3.0,7240,2,11246,typicality
27,0,discourage_B2,b,2.0,5572,2,11246,typicality
0,0,encourage_Z7,z,11.0,11282,1,11247,typicality
1,0,encourage_W4,w,2.0,8747,1,11247,typicality
2,0,encourage_A1,a,0.0,2264,1,11247,typicality
3,0,encourage_X7,x,0.0,643,1,11247,typicality
4,0,encourage_Y3,y,13.0,4359,1,11247,typicality
5,0,encourage_W7,w,4.0,4412,1,11247,typicality
6,0,encourage_B1,b,3.0,2426,1,11247,typicality
7,0,encourage_X4,x,0.0,2330,1,11247,typicality
8,0,encourage_W1,w,3.0,3620,1,11247,typicality
9,0,encourage_Z4,z,0.9999999999999997,2818,1,11247,typicality
10,0,encourage_B2,b,8.0,4608,1,11247,typicality
11,0,encourage_A3,a,5.0,2723,1,11247,typicality
12,0,encourage_X1,x,0.9999999999999997,2951,1,11247,typicality
13,0,encourage_Z3,z,4.0,3434,1,11247,typicality
14,0,encourage_Y7,y,13.0,2369,1,11247,typicality
15,0,encourage_Y4,y,13.0,994,1,11247,typicality
16,0,encourage_B3,b,13.0,916,1,11247,typicality
17,0,encourage_Y5,y,13.0,624,1,11247,typicality
18,0,encourage_W3,w,0.0,3147,1,11247,typicality
19,0,encourage_A2,a,0.0,863,1,11247,typicality
20,0,encourage_Z1,z,5.0,2986,1,11247,typicality
21,0,encourage_Z5,z,3.0,2873,1,11247,typicality
22,0,encourage_A0,a,3.0,1771,1,11247,typicality
23,0,encourage_Y1,y,13.0,4138,1,11247,typicality
24,0,encourage_W5,w,4.0,2739,1,11247,typicality
25,0,encourage_X5,x,0.0,2462,1,11247,typicality
26,0,encourage_X3,x,0.0,739,1,11247,typicality
27,0,encourage_B0,b,3.0,3190,1,11247,typicality
0,0,discourage_Z4,z,12.0,16961,2,11248,typicality
1,0,discourage_A0,a,0.9999999999999997,5978,2,11248,typicality
2,0,discourage_W5,w,2.0,5498,2,11248,typicality
3,0,discourage_X7,x,0.0,5609,2,11248,typicality
4,0,discourage_W3,w,8.0,11534,2,11248,typicality
5,0,discourage_B3,b,10.0,4551,2,11248,typicality
6,0,discourage_A1,a,3.0,5523,2,11248,typicality
7,0,discourage_Y3,y,13.0,4435,2,11248,typicality
8,0,discourage_Z5,z,12.0,3738,2,11248,typicality
9,0,discourage_W1,w,0.0,3530,2,11248,typicality
10,0,discourage_Y7,y,12.0,2995,2,11248,typicality
11,0,discourage_Z1,z,13.0,2450,2,11248,typicality
12,0,discourage_Y5,y,12.0,2923,2,11248,typicality
13,0,discourage_Y4,y,12.0,1634,2,11248,typicality
14,0,discourage_X5,x,0.0,2707,2,11248,typicality
15,0,discourage_B1,b,10.0,5219,2,11248,typicality
16,0,discourage_Z3,z,13.0,3059,2,11248,typicality
17,0,discourage_X1,x,0.0,4579,2,11248,typicality
18,0,discourage_A3,a,4.0,6687,2,11248,typicality
19,0,discourage_B2,b,8.0,3970,2,11248,typicality
20,0,discourage_X4,x,0.0,3267,2,11248,typicality
21,0,discourage_Z7,z,12.0,4907,2,11248,typicality
22,0,discourage_W7,w,0.0,4539,2,11248,typicality
23,0,discourage_W4,w,0.0,1218,2,11248,typicality
24,0,discourage_B0,b,3.0,4973,2,11248,typicality
25,0,discourage_Y1,y,10.0,3004,2,11248,typicality
26,0,discourage_A2,a,9.0,3243,2,11248,typicality
27,0,discourage_X3,x,4.0,4268,2,11248,typicality
0,0,encourage_Y7,y,11.0,16075,1,11249,typicality
1,0,encourage_X4,x,0.0,3962,1,11249,typicality
2,0,encourage_B1,b,2.0,3245,1,11249,typicality
3,0,encourage_X1,x,0.0,2289,1,11249,typicality
4,0,encourage_W7,w,0.0,4531,1,11249,typicality
5,0,encourage_Y1,y,12.0,5186,1,11249,typicality
6,0,encourage_X5,x,0.0,4506,1,11249,typicality
7,0,encourage_Y4,y,11.0,4376,1,11249,typicality
8,0,encourage_Y5,y,10.0,3299,1,11249,typicality
9,0,encourage_W5,w,0.0,2399,1,11249,typicality
10,0,encourage_X3,x,0.0,2711,1,11249,typicality
11,0,encourage_Z5,z,2.0,10694,1,11249,typicality
12,0,encourage_A1,a,0.0,1865,1,11249,typicality
13,0,encourage_Z4,z,3.0,3898,1,11249,typicality
14,0,encourage_B3,b,8.0,6709,1,11249,typicality
15,0,encourage_X7,x,0.0,2545,1,11249,typicality
16,0,encourage_A3,a,2.0,3187,1,11249,typicality
17,0,encourage_Y3,y,13.0,3162,1,11249,typicality
18,0,encourage_B0,b,6.0,17521,1,11249,typicality
19,0,encourage_A2,a,4.0,1785,1,11249,typicality
20,0,encourage_W3,w,0.0,3154,1,11249,typicality
21,0,encourage_B2,b,6.0,11866,1,11249,typicality
22,0,encourage_W4,w,0.0,1858,1,11249,typicality
23,0,encourage_Z3,z,3.0,7195,1,11249,typicality
24,0,encourage_Z7,z,2.0,2012,1,11249,typicality
25,0,encourage_W1,w,0.0,1818,1,11249,typicality
26,0,encourage_A0,a,0.0,651,1,11249,typicality
27,0,encourage_Z1,z,2.0,2766,1,11249,typicality
0,0,discourage_Z7,z,10.0,14794,2,11250,typicality
1,0,discourage_A2,a,13.0,4630,2,11250,typicality
2,0,discourage_Z5,z,13.0,1011,2,11250,typicality
3,0,discourage_X5,x,0.0,2866,2,11250,typicality
4,0,discourage_X4,x,0.0,1451,2,11250,typicality
5,0,discourage_Z4,z,7.0,5195,2,11250,typicality
6,0,discourage_Y3,y,9.0,3225,2,11250,typicality
7,0,discourage_X7,x,0.0,2309,2,11250,typicality
8,0,discourage_W4,w,0.0,2134,2,11250,typicality
9,0,discourage_A0,a,0.9999999999999997,3509,2,11250,typicality
10,0,discourage_B1,b,11.0,3907,2,11250,typicality
11,0,discourage_W5,w,0.0,2323,2,11250,typicality
12,0,discourage_X3,x,0.0,1632,2,11250,typicality
13,0,discourage_Y1,y,8.0,2759,2,11250,typicality
14,0,discourage_A3,a,11.0,3242,2,11250,typicality
15,0,discourage_Y4,y,8.0,3755,2,11250,typicality
16,0,discourage_Y7,y,8.0,1514,2,11250,typicality
17,0,discourage_W3,w,4.0,3672,2,11250,typicality
18,0,discourage_A1,a,0.9999999999999997,3852,2,11250,typicality
19,0,discourage_W7,w,0.9999999999999997,1142,2,11250,typicality
20,0,discourage_X1,x,0.0,3152,2,11250,typicality
21,0,discourage_B0,b,10.0,3423,2,11250,typicality
22,0,discourage_B2,b,10.0,1070,2,11250,typicality
23,0,discourage_Z1,z,10.0,2829,2,11250,typicality
24,0,discourage_Z3,z,10.0,1146,2,11250,typicality
25,0,discourage_B3,b,10.0,3298,2,11250,typicality
26,0,discourage_Y5,y,8.0,3052,2,11250,typicality
27,0,discourage_W1,w,0.0,2552,2,11250,typicality
0,0,encourage_A0,a,2.0,15768,1,11251,typicality
1,0,encourage_Z3,z,3.0,4118,1,11251,typicality
2,0,encourage_Z1,z,5.0,5987,1,11251,typicality
3,0,encourage_B3,b,11.0,2886,1,11251,typicality
4,0,encourage_Z5,z,8.0,4055,1,11251,typicality
5,0,encourage_B2,b,8.0,2357,1,11251,typicality
6,0,encourage_Y5,y,13.0,3473,1,11251,typicality
7,0,encourage_W7,w,3.0,5401,1,11251,typicality
8,0,encourage_A1,a,2.0,2648,1,11251,typicality
9,0,encourage_W3,w,3.0,2484,1,11251,typicality
10,0,encourage_B0,b,11.0,5529,1,11251,typicality
11,0,encourage_B1,b,11.0,1791,1,11251,typicality
12,0,encourage_Y3,y,13.0,5443,1,11251,typicality
13,0,encourage_X3,x,0.0,2560,1,11251,typicality
14,0,encourage_W4,w,2.0,2547,1,11251,typicality
15,0,encourage_Z4,z,4.0,2738,1,11251,typicality
16,0,encourage_A2,a,4.0,2284,1,11251,typicality
17,0,encourage_W5,w,3.0,2816,1,11251,typicality
18,0,encourage_Y1,y,12.0,5563,1,11251,typicality
19,0,encourage_X4,x,0.0,3495,1,11251,typicality
20,0,encourage_Y4,y,12.0,4080,1,11251,typicality
21,0,encourage_W1,w,3.0,2777,1,11251,typicality
22,0,encourage_X5,x,0.0,1603,1,11251,typicality
23,0,encourage_A3,a,3.0,4218,1,11251,typicality
24,0,encourage_Z7,z,3.0,1183,1,11251,typicality
25,0,encourage_Y7,y,5.0,2371,1,11251,typicality
26,0,encourage_X7,x,0.0,1881,1,11251,typicality
27,0,encourage_X1,x,0.0,1569,1,11251,typicality
0,0,discourage_W3,w,3.0,18925,2,11252,typicality
1,0,discourage_B0,b,9.0,7077,2,11252,typicality
2,0,discourage_W7,w,2.0,5863,2,11252,typicality
3,0,discourage_B1,b,9.0,5564,2,11252,typicality
4,0,discourage_X3,x,2.0,5499,2,11252,typicality
5,0,discourage_Z3,z,10.0,4391,2,11252,typicality
6,0,discourage_X7,x,0.9999999999999997,7770,2,11252,typicality
7,0,discourage_Z5,z,8.0,3504,2,11252,typicality
8,0,discourage_X1,x,0.9999999999999997,8114,2,11252,typicality
9,0,discourage_Z7,z,8.0,4859,2,11252,typicality
10,0,discourage_X4,x,2.0,2561,2,11252,typicality
11,0,discourage_Z1,z,9.0,4902,2,11252,typicality
12,0,discourage_A2,a,6.0,7897,2,11252,typicality
13,0,discourage_B3,b,8.0,2179,2,11252,typicality
14,0,discourage_X5,x,0.0,2479,2,11252,typicality
15,0,discourage_Y5,y,12.0,2575,2,11252,typicality
16,0,discourage_A1,a,0.9999999999999997,2997,2,11252,typicality
17,0,discourage_W4,w,4.0,3450,2,11252,typicality
18,0,discourage_W1,w,4.0,1685,2,11252,typicality
19,0,discourage_Y7,y,9.0,2100,2,11252,typicality
20,0,discourage_W5,w,4.0,3203,2,11252,typicality
21,0,discourage_A0,a,2.0,2764,2,11252,typicality
22,0,discourage_Y4,y,9.0,2204,2,11252,typicality
23,0,discourage_Y3,y,12.0,4371,2,11252,typicality
24,0,discourage_Z4,z,10.0,3275,2,11252,typicality
25,0,discourage_A3,a,8.0,3198,2,11252,typicality
26,0,discourage_Y1,y,13.0,4010,2,11252,typicality
27,0,discourage_B2,b,8.0,4257,2,11252,typicality
0,0,encourage_Y1,y,13.0,8515,1,11253,typicality
1,0,encourage_X1,x,5.0,10778,1,11253,typicality
2,0,encourage_A2,a,3.0,2589,1,11253,typicality
3,0,encourage_A3,a,2.0,1715,1,11253,typicality
4,0,encourage_Y7,y,10.0,2716,1,11253,typicality
5,0,encourage_Y5,y,10.0,1338,1,11253,typicality
6,0,encourage_B2,b,8.0,5522,1,11253,typicality
7,0,encourage_X7,x,0.0,1949,1,11253,typicality
8,0,encourage_A0,a,0.9999999999999997,2562,1,11253,typicality
9,0,encourage_A1,a,0.9999999999999997,938,1,11253,typicality
10,0,encourage_Y4,y,12.0,2871,1,11253,typicality
11,0,encourage_X4,x,2.0,2198,1,11253,typicality
12,0,encourage_B0,b,5.0,4969,1,11253,typicality
13,0,encourage_W5,w,13.0,2231,1,11253,typicality
14,0,encourage_Z1,z,0.0,2097,1,11253,typicality
15,0,encourage_B3,b,5.0,3034,1,11253,typicality
16,0,encourage_X5,x,0.0,1922,1,11253,typicality
17,0,encourage_Y3,y,13.0,3011,1,11253,typicality
18,0,encourage_W4,w,13.0,953,1,11253,typicality
19,0,encourage_W3,w,13.0,618,1,11253,typicality
20,0,encourage_W1,w,13.0,802,1,11253,typicality
21,0,encourage_X3,x,4.0,3584,1,11253,typicality
22,0,encourage_Z4,z,4.0,1074,1,11253,typicality
23,0,encourage_Z3,z,4.0,769,1,11253,typicality
24,0,encourage_W7,w,5.0,2242,1,11253,typicality
25,0,encourage_Z5,z,3.0,2261,1,11253,typicality
26,0,encourage_Z7,z,3.0,522,1,11253,typicality
27,0,encourage_B1,b,3.0,686,1,11253,typicality
0,0,discourage_X4,x,2.0,17022,2,11254,typicality
1,0,discourage_A3,a,4.0,6481,2,11254,typicality
2,0,discourage_Y1,y,11.0,9528,2,11254,typicality
3,0,discourage_Z7,z,8.0,2994,2,11254,typicality
4,0,discourage_Y5,y,11.0,2531,2,11254,typicality
5,0,discourage_Y4,y,11.0,1050,2,11254,typicality
6,0,discourage_W5,w,3.0,3673,2,11254,typicality
7,0,discourage_Z3,z,8.0,2591,2,11254,typicality
8,0,discourage_Z5,z,4.0,9648,2,11254,typicality
9,0,discourage_B2,b,3.0,1810,2,11254,typicality
10,0,discourage_Y7,y,11.0,4275,2,11254,typicality
11,0,discourage_Z4,z,8.0,2786,2,11254,typicality
12,0,discourage_B0,b,5.0,3522,2,11254,typicality
13,0,discourage_A1,a,0.0,2394,2,11254,typicality
14,0,discourage_W3,w,2.0,2617,2,11254,typicality
15,0,discourage_W4,w,0.9999999999999997,3489,2,11254,typicality
16,0,discourage_X1,x,0.0,3955,2,11254,typicality
17,0,discourage_W1,w,2.0,2811,2,11254,typicality
18,0,discourage_X7,x,0.0,2051,2,11254,typicality
19,0,discourage_X3,x,0.9999999999999997,2329,2,11254,typicality
20,0,discourage_W7,w,2.0,2347,2,11254,typicality
21,0,discourage_X5,x,0.0,1867,2,11254,typicality
22,0,discourage_Z1,z,8.0,9309,2,11254,typicality
23,0,discourage_B1,b,5.0,2530,2,11254,typicality
24,0,discourage_A2,a,3.0,2030,2,11254,typicality
25,0,discourage_B3,b,4.0,2163,2,11254,typicality
26,0,discourage_Y3,y,12.0,2499,2,11254,typicality
27,0,discourage_A0,a,5.0,2875,2,11254,typicality
0,0,encourage_W4,w,3.0,9416,1,11255,typicality
1,0,encourage_B3,b,9.0,9684,1,11255,typicality
2,0,encourage_Z4,z,2.0,11789,1,11255,typicality
3,0,encourage_W3,w,3.0,8651,1,11255,typicality
4,0,encourage_W7,w,3.0,2847,1,11255,typicality
5,0,encourage_Z7,z,2.0,3030,1,11255,typicality
6,0,encourage_X3,x,0.0,2799,1,11255,typicality
7,0,encourage_W5,w,3.0,4294,1,11255,typicality
8,0,encourage_B0,b,7.0,3555,1,11255,typicality
9,0,encourage_W1,w,4.0,4921,1,11255,typicality
10,0,encourage_Y1,y,13.0,3557,1,11255,typicality
11,0,encourage_Z1,z,3.0,2913,1,11255,typicality
12,0,encourage_Y7,y,11.0,3973,1,11255,typicality
13,0,encourage_Z3,z,3.0,6739,1,11255,typicality
14,0,encourage_A2,a,5.0,18875,1,11255,typicality
15,0,encourage_B1,b,7.0,2922,1,11255,typicality
16,0,encourage_X1,x,0.0,3642,1,11255,typicality
17,0,encourage_A3,a,3.0,5740,1,11255,typicality
18,0,encourage_X7,x,0.0,2056,1,11255,typicality
19,0,encourage_A0,a,2.0,2299,1,11255,typicality
20,0,encourage_Y5,y,12.0,6192,1,11255,typicality
21,0,encourage_Y3,y,13.0,2317,1,11255,typicality
22,0,encourage_X4,x,0.0,2246,1,11255,typicality
23,0,encourage_B2,b,8.0,6003,1,11255,typicality
24,0,encourage_X5,x,0.9999999999999997,2761,1,11255,typicality
25,0,encourage_Y4,y,13.0,9386,1,11255,typicality
26,0,encourage_A1,a,2.0,3101,1,11255,typicality
27,0,encourage_Z5,z,6.0,16698,1,11255,typicality
0,0,discourage_Z7,z,4.0,10371,2,11256,typicality
1,0,discourage_Y4,y,12.0,3591,2,11256,typicality
2,0,discourage_X5,x,0.0,2206,2,11256,typicality
3,0,discourage_B3,b,4.0,3922,2,11256,typicality
4,0,discourage_X4,x,0.0,1842,2,11256,typicality
5,0,discourage_A0,a,2.0,1803,2,11256,typicality
6,0,discourage_A1,a,0.9999999999999997,1978,2,11256,typicality
7,0,discourage_W3,w,5.0,2387,2,11256,typicality
8,0,discourage_Y3,y,13.0,2642,2,11256,typicality
9,0,discourage_W4,w,5.0,2490,2,11256,typicality
10,0,discourage_B1,b,5.0,5501,2,11256,typicality
11,0,discourage_A3,a,2.0,1785,2,11256,typicality
12,0,discourage_Z3,z,7.0,6320,2,11256,typicality
13,0,discourage_B0,b,6.0,2251,2,11256,typicality
14,0,discourage_W7,w,4.0,2061,2,11256,typicality
15,0,discourage_Y5,y,12.0,4227,2,11256,typicality
16,0,discourage_Y7,y,11.0,1729,2,11256,typicality
17,0,discourage_A2,a,2.0,3930,2,11256,typicality
18,0,discourage_Z1,z,7.0,2941,2,11256,typicality
19,0,discourage_X1,x,0.9999999999999997,4511,2,11256,typicality
20,0,discourage_X3,x,0.9999999999999997,1131,2,11256,typicality
21,0,discourage_Z5,z,0.9999999999999997,2714,2,11256,typicality
22,0,discourage_X7,x,0.0,2444,2,11256,typicality
23,0,discourage_Z4,z,0.9999999999999997,1986,2,11256,typicality
24,0,discourage_W1,w,5.0,2179,2,11256,typicality
25,0,discourage_Y1,y,13.0,4123,2,11256,typicality
26,0,discourage_B2,b,6.0,2485,2,11256,typicality
27,0,discourage_W5,w,5.0,1731,2,11256,typicality
0,0,encourage_X7,x,0.9999999999999997,7593,1,11257,typicality
1,0,encourage_A3,a,4.0,7884,1,11257,typicality
2,0,encourage_W3,w,5.0,5119,1,11257,typicality
3,0,encourage_A0,a,0.0,3386,1,11257,typicality
4,0,encourage_W1,w,0.0,1819,1,11257,typicality
5,0,encourage_W5,w,0.0,1841,1,11257,typicality
6,0,encourage_Y3,y,11.0,4353,1,11257,typicality
7,0,encourage_B2,b,8.0,4571,1,11257,typicality
8,0,encourage_Y7,y,10.0,2082,1,11257,typicality
9,0,encourage_Y1,y,11.0,4156,1,11257,typicality
10,0,encourage_B1,b,7.0,3156,1,11257,typicality
11,0,encourage_A2,a,6.0,6892,1,11257,typicality
12,0,encourage_W7,w,2.0,3509,1,11257,typicality
13,0,encourage_Z5,z,6.0,3040,1,11257,typicality
14,0,encourage_W4,w,2.0,2925,1,11257,typicality
15,0,encourage_Y5,y,10.0,3102,1,11257,typicality
16,0,encourage_X5,x,0.0,2553,1,11257,typicality
17,0,encourage_A1,a,0.9999999999999997,4295,1,11257,typicality
18,0,encourage_B3,b,6.0,3460,1,11257,typicality
19,0,encourage_X4,x,0.9999999999999997,3364,1,11257,typicality
20,0,encourage_Y4,y,11.0,4493,1,11257,typicality
21,0,encourage_Z7,z,8.0,2810,1,11257,typicality
22,0,encourage_Z3,z,7.0,2167,1,11257,typicality
23,0,encourage_Z1,z,7.0,3606,1,11257,typicality
24,0,encourage_B0,b,6.0,5831,1,11257,typicality
25,0,encourage_X3,x,2.0,2270,1,11257,typicality
26,0,encourage_X1,x,2.0,2277,1,11257,typicality
27,0,encourage_Z4,z,7.0,4715,1,11257,typicality
0,0,discourage_Y7,y,11.0,10841,2,11258,typicality
1,0,discourage_X1,x,2.0,4156,2,11258,typicality
2,0,discourage_X5,x,2.0,2501,2,11258,typicality
3,0,discourage_W4,w,4.0,5659,2,11258,typicality
4,0,discourage_Y5,y,10.0,5149,2,11258,typicality
5,0,discourage_X7,x,3.0,2719,2,11258,typicality
6,0,discourage_W7,w,3.0,3231,2,11258,typicality
7,0,discourage_W1,w,4.0,2810,2,11258,typicality
8,0,discourage_B0,b,5.0,8217,2,11258,typicality
9,0,discourage_Z5,z,3.0,3149,2,11258,typicality
10,0,discourage_Z7,z,3.0,1407,2,11258,typicality
11,0,discourage_Z4,z,3.0,1121,2,11258,typicality
12,0,discourage_X4,x,3.0,1536,2,11258,typicality
13,0,discourage_A0,a,4.0,4869,2,11258,typicality
14,0,discourage_Y3,y,8.0,4501,2,11258,typicality
15,0,discourage_W3,w,4.0,9977,2,11258,typicality
16,0,discourage_Y4,y,9.0,3458,2,11258,typicality
17,0,discourage_Z1,z,10.0,3388,2,11258,typicality
18,0,discourage_B2,b,5.0,4097,2,11258,typicality
19,0,discourage_W5,w,4.0,4721,2,11258,typicality
20,0,discourage_A1,a,4.0,1604,2,11258,typicality
21,0,discourage_Z3,z,3.0,3482,2,11258,typicality
22,0,discourage_A2,a,3.0,2896,2,11258,typicality
23,0,discourage_B1,b,10.0,3816,2,11258,typicality
24,0,discourage_X3,x,4.0,2407,2,11258,typicality
25,0,discourage_B3,b,11.0,3186,2,11258,typicality
26,0,discourage_Y1,y,9.0,7503,2,11258,typicality
27,0,discourage_A3,a,4.0,3180,2,11258,typicality
0,0,encourage_Y4,y,13.0,14084,1,11259,typicality
1,0,encourage_A0,a,0.0,2768,1,11259,typicality
2,0,encourage_B3,b,9.0,3980,1,11259,typicality
3,0,encourage_X3,x,0.0,2491,1,11259,typicality
4,0,encourage_W5,w,0.0,1146,1,11259,typicality
5,0,encourage_X1,x,0.0,739,1,11259,typicality
6,0,encourage_Y7,y,13.0,4382,1,11259,typicality
7,0,encourage_A3,a,5.0,9820,1,11259,typicality
8,0,encourage_W1,w,0.0,2045,1,11259,typicality
9,0,encourage_Y5,y,13.0,2338,1,11259,typicality
10,0,encourage_B2,b,13.0,1062,1,11259,typicality
11,0,encourage_Y1,y,13.0,659,1,11259,typicality
12,0,encourage_W3,w,0.0,3131,1,11259,typicality
13,0,encourage_Z5,z,13.0,2227,1,11259,typicality
14,0,encourage_X5,x,0.0,2150,1,11259,typicality
15,0,encourage_W7,w,0.0,876,1,11259,typicality
16,0,encourage_Y3,y,13.0,2325,1,11259,typicality
17,0,encourage_A1,a,0.0,2506,1,11259,typicality
18,0,encourage_B1,b,4.0,2948,1,11259,typicality
19,0,encourage_Z3,z,13.0,1924,1,11259,typicality
20,0,encourage_A2,a,4.0,2954,1,11259,typicality
21,0,encourage_X7,x,0.0,2331,1,11259,typicality
22,0,encourage_Z4,z,13.0,2403,1,11259,typicality
23,0,encourage_Z7,z,13.0,524,1,11259,typicality
24,0,encourage_W4,w,0.0,2371,1,11259,typicality
25,0,encourage_X4,x,0.0,1011,1,11259,typicality
26,0,encourage_B0,b,3.0,2476,1,11259,typicality
27,0,encourage_Z1,z,11.0,2156,1,11259,typicality
0,0,discourage_B3,b,13.0,6027,2,11260,typicality
1,0,discourage_W1,w,2.0,3638,2,11260,typicality
2,0,discourage_X7,x,0.0,2754,2,11260,typicality
3,0,discourage_Y4,y,8.0,3090,2,11260,typicality
4,0,discourage_X5,x,3.0,3753,2,11260,typicality
5,0,discourage_Y7,y,9.0,3571,2,11260,typicality
6,0,discourage_Y1,y,10.0,2421,2,11260,typicality
7,0,discourage_Z3,z,6.0,5067,2,11260,typicality
8,0,discourage_Z7,z,6.0,3075,2,11260,typicality
9,0,discourage_Y3,y,9.0,2388,2,11260,typicality
10,0,discourage_A3,a,7.0,3053,2,11260,typicality
11,0,discourage_A1,a,4.0,2693,2,11260,typicality
12,0,discourage_W3,w,3.0,1707,2,11260,typicality
13,0,discourage_Z5,z,5.0,2617,2,11260,typicality
14,0,discourage_B2,b,8.0,1930,2,11260,typicality
15,0,discourage_W4,w,4.0,1795,2,11260,typicality
16,0,discourage_X1,x,3.0,1962,2,11260,typicality
17,0,discourage_W5,w,4.0,1795,2,11260,typicality
18,0,discourage_X4,x,3.0,2554,2,11260,typicality
19,0,discourage_A2,a,4.0,2508,2,11260,typicality
20,0,discourage_X3,x,2.0,1989,2,11260,typicality
21,0,discourage_Y5,y,10.0,3622,2,11260,typicality
22,0,discourage_Z4,z,10.0,826,2,11260,typicality
23,0,discourage_Z1,z,10.0,1529,2,11260,typicality
24,0,discourage_B1,b,12.0,2824,2,11260,typicality
25,0,discourage_B0,b,12.0,1243,2,11260,typicality
26,0,discourage_A0,a,2.0,2395,2,11260,typicality
27,0,discourage_W7,w,2.0,396,2,11260,typicality
0,0,encourage_Y5,y,10.0,11486,1,11261,typicality
1,0,encourage_X1,x,0.0,6051,1,11261,typicality
2,0,encourage_A2,a,3.0,5507,1,11261,typicality
3,0,encourage_B0,b,5.0,6657,1,11261,typicality
4,0,encourage_X5,x,0.0,4146,1,11261,typicality
5,0,encourage_A0,a,4.0,3841,1,11261,typicality
6,0,encourage_W4,w,9.0,7553,1,11261,typicality
7,0,encourage_Y1,y,13.0,5026,1,11261,typicality
8,0,encourage_Y7,y,11.0,2893,1,11261,typicality
9,0,encourage_W7,w,9.0,4632,1,11261,typicality
10,0,encourage_B1,b,4.0,5090,1,11261,typicality
11,0,encourage_W3,w,9.0,5398,1,11261,typicality
12,0,encourage_Y4,y,13.0,2626,1,11261,typicality
13,0,encourage_Y3,y,13.0,1634,1,11261,typicality
14,0,encourage_A3,a,3.0,4566,1,11261,typicality
15,0,encourage_Z5,z,3.0,2418,1,11261,typicality
16,0,encourage_Z7,z,4.0,1659,1,11261,typicality
17,0,encourage_W5,w,10.0,3658,1,11261,typicality
18,0,encourage_X7,x,2.0,2362,1,11261,typicality
19,0,encourage_X3,x,3.0,3018,1,11261,typicality
20,0,encourage_W1,w,12.0,5965,1,11261,typicality
21,0,encourage_X4,x,0.0,2892,1,11261,typicality
22,0,encourage_Z3,z,0.0,4812,1,11261,typicality
23,0,encourage_B3,b,8.0,7369,1,11261,typicality
24,0,encourage_Z4,z,0.0,2921,1,11261,typicality
25,0,encourage_A1,a,0.0,1714,1,11261,typicality
26,0,encourage_B2,b,8.0,7467,1,11261,typicality
27,0,encourage_Z1,z,4.0,7019,1,11261,typicality
0,0,discourage_B2,b,4.0,13513,2,11262,typicality
1,0,discourage_A1,a,2.0,3298,2,11262,typicality
2,0,discourage_A2,a,4.0,2804,2,11262,typicality
3,0,discourage_Y1,y,13.0,2850,2,11262,typicality
4,0,discourage_B3,b,8.0,3050,2,11262,typicality
5,0,discourage_B0,b,5.0,3458,2,11262,typicality
6,0,discourage_Y7,y,11.0,3702,2,11262,typicality
7,0,discourage_Z3,z,9.0,2737,2,11262,typicality
8,0,discourage_W7,w,4.0,2499,2,11262,typicality
9,0,discourage_X5,x,0.0,2778,2,11262,typicality
10,0,discourage_W4,w,3.0,2455,2,11262,typicality
11,0,discourage_X7,x,0.9999999999999997,2314,2,11262,typicality
12,0,discourage_W1,w,5.0,2770,2,11262,typicality
13,0,discourage_Z7,z,9.0,6043,2,11262,typicality
14,0,discourage_X4,x,4.0,3803,2,11262,typicality
15,0,discourage_Y3,y,13.0,2282,2,11262,typicality
16,0,discourage_A3,a,5.0,5587,2,11262,typicality
17,0,discourage_Z5,z,6.0,2123,2,11262,typicality
18,0,discourage_Z4,z,7.0,2701,2,11262,typicality
19,0,discourage_B1,b,4.0,3371,2,11262,typicality
20,0,discourage_Z1,z,9.0,4025,2,11262,typicality
21,0,discourage_X3,x,4.0,2850,2,11262,typicality
22,0,discourage_X1,x,2.0,3138,2,11262,typicality
23,0,discourage_W5,w,3.0,2402,2,11262,typicality
24,0,discourage_A0,a,3.0,2257,2,11262,typicality
25,0,discourage_W3,w,4.0,2490,2,11262,typicality
26,0,discourage_Y4,y,13.0,4114,2,11262,typicality
27,0,discourage_Y5,y,12.0,2403,2,11262,typicality
0,0,encourage_B3,b,4.0,17584,1,11263,typicality
1,0,encourage_Z3,z,13.0,4534,1,11263,typicality
2,0,encourage_Z4,z,13.0,1784,1,11263,typicality
3,0,encourage_W4,w,9.0,16860,1,11263,typicality
4,0,encourage_Y7,y,0.9999999999999997,4434,1,11263,typicality
5,0,encourage_Y1,y,11.0,4306,1,11263,typicality
6,0,encourage_Z7,z,13.0,2971,1,11263,typicality
7,0,encourage_W7,w,13.0,2796,1,11263,typicality
8,0,encourage_Y4,y,11.0,2587,1,11263,typicality
9,0,encourage_Y3,y,3.0,8028,1,11263,typicality
10,0,encourage_B0,b,0.0,10043,1,11263,typicality
11,0,encourage_X7,x,13.0,7464,1,11263,typicality
12,0,encourage_X3,x,13.0,1916,1,11263,typicality
13,0,encourage_A1,a,0.0,3611,1,11263,typicality
14,0,encourage_A3,a,13.0,2957,1,11263,typicality
15,0,encourage_B1,b,13.0,1275,1,11263,typicality
16,0,encourage_W1,w,9.0,6746,1,11263,typicality
17,0,encourage_X4,x,13.0,9888,1,11263,typicality
18,0,encourage_Z5,z,13.0,985,1,11263,typicality
19,0,encourage_B2,b,0.0,2874,1,11263,typicality
20,0,encourage_W5,w,13.0,3422,1,11263,typicality
21,0,encourage_A0,a,0.0,5018,1,11263,typicality
22,0,encourage_Y5,y,11.0,2008,1,11263,typicality
23,0,encourage_A2,a,13.0,3099,1,11263,typicality
24,0,encourage_Z1,z,13.0,1243,1,11263,typicality
25,0,encourage_X5,x,13.0,1160,1,11263,typicality
26,0,encourage_X1,x,13.0,1305,1,11263,typicality
27,0,encourage_W3,w,10.0,3028,1,11263,typicality
0,0,discourage_Z7,z,9.0,12426,2,11264,typicality
1,0,discourage_W3,w,4.0,5022,2,11264,typicality
2,0,discourage_Z4,z,5.0,5484,2,11264,typicality
3,0,discourage_X5,x,2.0,2399,2,11264,typicality
4,0,discourage_Y4,y,10.0,3757,2,11264,typicality
5,0,discourage_X7,x,4.0,3299,2,11264,typicality
6,0,discourage_X4,x,4.0,2035,2,11264,typicality
7,0,discourage_B1,b,4.0,2507,2,11264,typicality
8,0,discourage_W7,w,4.0,2610,2,11264,typicality
9,0,discourage_W4,w,3.0,2150,2,11264,typicality
10,0,discourage_A0,a,3.0,1562,2,11264,typicality
11,0,discourage_A2,a,3.0,2634,2,11264,typicality
12,0,discourage_A1,a,3.0,940,2,11264,typicality
13,0,discourage_B0,b,3.0,2421,2,11264,typicality
14,0,discourage_Z3,z,5.0,3406,2,11264,typicality
15,0,discourage_X1,x,5.0,3106,2,11264,typicality
16,0,discourage_W1,w,3.0,4815,2,11264,typicality
17,0,discourage_X3,x,3.0,1683,2,11264,typicality
18,0,discourage_Y7,y,8.0,4846,2,11264,typicality
19,0,discourage_Y3,y,8.0,1155,2,11264,typicality
20,0,discourage_W5,w,5.0,2074,2,11264,typicality
21,0,discourage_A3,a,3.0,2891,2,11264,typicality
22,0,discourage_Y1,y,11.0,3618,2,11264,typicality
23,0,discourage_Z1,z,11.0,2072,2,11264,typicality
24,0,discourage_B2,b,3.0,3054,2,11264,typicality
25,0,discourage_Z5,z,3.0,1530,2,11264,typicality
26,0,discourage_B3,b,3.0,1085,2,11264,typicality
27,0,discourage_Y5,y,8.0,3560,2,11264,typicality
0,0,encourage_X3,x,3.0,12641,1,11265,typicality
1,0,encourage_Y3,y,13.0,2106,1,11265,typicality
2,0,encourage_Y5,y,13.0,1254,1,11265,typicality
3,0,encourage_A2,a,2.0,11305,1,11265,typicality
4,0,encourage_W3,w,0.9999999999999997,5938,1,11265,typicality
5,0,encourage_X7,x,0.0,2385,1,11265,typicality
6,0,encourage_X5,x,0.0,971,1,11265,typicality
7,0,encourage_Z3,z,4.0,7314,1,11265,typicality
8,0,encourage_B3,b,5.0,4250,1,11265,typicality
9,0,encourage_Z4,z,4.0,5694,1,11265,typicality
10,0,encourage_X1,x,2.0,4298,1,11265,typicality
11,0,encourage_W5,w,3.0,3531,1,11265,typicality
12,0,encourage_W4,w,3.0,1356,1,11265,typicality
13,0,encourage_W1,w,4.0,3626,1,11265,typicality
14,0,encourage_A3,a,5.0,2404,1,11265,typicality
15,0,encourage_Z5,z,5.0,3330,1,11265,typicality
16,0,encourage_Y4,y,12.0,4761,1,11265,typicality
17,0,encourage_W7,w,4.0,5884,1,11265,typicality
18,0,encourage_B1,b,3.0,5915,1,11265,typicality
19,0,encourage_Y7,y,13.0,2410,1,11265,typicality
20,0,encourage_Z7,z,3.0,7091,1,11265,typicality
21,0,encourage_A1,a,2.0,2930,1,11265,typicality
22,0,encourage_Z1,z,4.0,2805,1,11265,typicality
23,0,encourage_Y1,y,13.0,4182,1,11265,typicality
24,0,encourage_A0,a,4.0,2878,1,11265,typicality
25,0,encourage_B0,b,5.0,1649,1,11265,typicality
26,0,encourage_B2,b,6.0,1603,1,11265,typicality
27,0,encourage_X4,x,0.0,2435,1,11265,typicality
0,0,discourage_W7,w,8.0,12651,2,11266,typicality
1,0,discourage_W4,w,10.0,5176,2,11266,typicality
2,0,discourage_Z3,z,5.0,3717,2,11266,typicality
3,0,discourage_A1,a,6.0,3128,2,11266,typicality
4,0,discourage_B1,b,6.0,1769,2,11266,typicality
5,0,discourage_A0,a,3.0,3452,2,11266,typicality
6,0,discourage_X4,x,3.0,3741,2,11266,typicality
7,0,discourage_Z5,z,3.0,2235,2,11266,typicality
8,0,discourage_Y7,y,9.0,6846,2,11266,typicality
9,0,discourage_B3,b,7.0,5258,2,11266,typicality
10,0,discourage_B0,b,9.0,2802,2,11266,typicality
11,0,discourage_W3,w,10.0,2126,2,11266,typicality
12,0,discourage_Z7,z,3.0,3254,2,11266,typicality
13,0,discourage_X5,x,2.0,3305,2,11266,typicality
14,0,discourage_Y1,y,10.0,3172,2,11266,typicality
15,0,discourage_A2,a,5.0,3514,2,11266,typicality
16,0,discourage_W1,w,11.0,3333,2,11266,typicality
17,0,discourage_Z4,z,3.0,4327,2,11266,typicality
18,0,discourage_W5,w,5.0,3513,2,11266,typicality
19,0,discourage_B2,b,5.0,4933,2,11266,typicality
20,0,discourage_Z1,z,4.0,2594,2,11266,typicality
21,0,discourage_Y3,y,10.0,2614,2,11266,typicality
22,0,discourage_Y5,y,10.0,877,2,11266,typicality
23,0,discourage_X7,x,3.0,5508,2,11266,typicality
24,0,discourage_Y4,y,9.0,2466,2,11266,typicality
25,0,discourage_A3,a,3.0,2386,2,11266,typicality
26,0,discourage_X3,x,3.0,1987,2,11266,typicality
27,0,discourage_X1,x,3.0,3376,2,11266,typicality
0,0,encourage_A2,a,3.0,10290,1,11267,typicality
1,0,encourage_X3,x,2.0,6637,1,11267,typicality
2,0,encourage_W7,w,0.9999999999999997,3699,1,11267,typicality
3,0,encourage_W4,w,0.9999999999999997,1554,1,11267,typicality
4,0,encourage_X5,x,0.0,2946,1,11267,typicality
5,0,encourage_B0,b,12.0,5898,1,11267,typicality
6,0,encourage_W3,w,4.0,4945,1,11267,typicality
7,0,encourage_Y7,y,10.0,3944,1,11267,typicality
8,0,encourage_Y3,y,11.0,4522,1,11267,typicality
9,0,encourage_W1,w,3.0,6747,1,11267,typicality
10,0,encourage_A3,a,4.0,7523,1,11267,typicality
11,0,encourage_A0,a,3.0,2099,1,11267,typicality
12,0,encourage_Z4,z,3.0,1922,1,11267,typicality
13,0,encourage_Z7,z,3.0,1514,1,11267,typicality
14,0,encourage_X7,x,2.0,3005,1,11267,typicality
15,0,encourage_X4,x,2.0,2426,1,11267,typicality
16,0,encourage_X1,x,2.0,687,1,11267,typicality
17,0,encourage_B3,b,10.0,2939,1,11267,typicality
18,0,encourage_A1,a,2.0,2754,1,11267,typicality
19,0,encourage_B2,b,10.0,5138,1,11267,typicality
20,0,encourage_Y4,y,10.0,2658,1,11267,typicality
21,0,encourage_Z3,z,12.0,1802,1,11267,typicality
22,0,encourage_Z5,z,0.9999999999999997,2403,1,11267,typicality
23,0,encourage_W5,w,0.9999999999999997,2386,1,11267,typicality
24,0,encourage_Y5,y,9.0,2610,1,11267,typicality
25,0,encourage_B1,b,8.0,2010,1,11267,typicality
26,0,encourage_Z1,z,4.0,1962,1,11267,typicality
27,0,encourage_Y1,y,8.0,2346,1,11267,typicality
0,0,discourage_Z1,z,3.0,12246,2,11268,typicality
1,0,discourage_W1,w,3.0,3952,2,11268,typicality
2,0,discourage_Y7,y,5.0,5833,2,11268,typicality
3,0,discourage_A3,a,0.9999999999999997,4986,2,11268,typicality
4,0,discourage_X3,x,9.0,4531,2,11268,typicality
5,0,discourage_X1,x,10.0,2513,2,11268,typicality
6,0,discourage_X7,x,11.0,1961,2,11268,typicality
7,0,discourage_A2,a,8.0,6954,2,11268,typicality
8,0,discourage_B0,b,7.0,5965,2,11268,typicality
9,0,discourage_Y5,y,9.0,6217,2,11268,typicality
10,0,discourage_W4,w,3.0,2238,2,11268,typicality
11,0,discourage_W3,w,3.0,1106,2,11268,typicality
12,0,discourage_X5,x,12.0,3811,2,11268,typicality
13,0,discourage_B3,b,3.0,10962,2,11268,typicality
14,0,discourage_Z5,z,2.0,4515,2,11268,typicality
15,0,discourage_Y4,y,8.0,3003,2,11268,typicality
16,0,discourage_W7,w,5.0,2059,2,11268,typicality
17,0,discourage_B1,b,3.0,2778,2,11268,typicality
18,0,discourage_B2,b,3.0,1120,2,11268,typicality
19,0,discourage_A1,a,10.0,2839,2,11268,typicality
20,0,discourage_Z3,z,0.0,1964,2,11268,typicality
21,0,discourage_X4,x,13.0,2802,2,11268,typicality
22,0,discourage_A0,a,13.0,2746,2,11268,typicality
23,0,discourage_W5,w,5.0,2957,2,11268,typicality
24,0,discourage_Z4,z,0.0,2285,2,11268,typicality
25,0,discourage_Z7,z,0.0,730,2,11268,typicality
26,0,discourage_Y3,y,8.0,2847,2,11268,typicality
27,0,discourage_Y1,y,10.0,3410,2,11268,typicality
0,0,encourage_Y7,y,13.0,7947,1,11269,typicality
1,0,encourage_B3,b,13.0,1416,1,11269,typicality
2,0,encourage_W5,w,5.0,3813,1,11269,typicality
3,0,encourage_W7,w,5.0,754,1,11269,typicality
4,0,encourage_B0,b,3.0,5042,1,11269,typicality
5,0,encourage_Z1,z,3.0,467,1,11269,typicality
6,0,encourage_Z4,z,3.0,572,1,11269,typicality
7,0,encourage_W4,w,3.0,1316,1,11269,typicality
8,0,encourage_A2,a,3.0,687,1,11269,typicality
9,0,encourage_A0,a,3.0,483,1,11269,typicality
10,0,encourage_Y4,y,13.0,3567,1,11269,typicality
11,0,encourage_A1,a,0.9999999999999997,2662,1,11269,typicality
12,0,encourage_X5,x,0.9999999999999997,720,1,11269,typicality
13,0,encourage_Y1,y,13.0,5203,1,11269,typicality
14,0,encourage_Y5,y,13.0,670,1,11269,typicality
15,0,encourage_Z3,z,5.0,3488,1,11269,typicality
16,0,encourage_Y3,y,11.0,4024,1,11269,typicality
17,0,encourage_X4,x,0.0,2606,1,11269,typicality
18,0,encourage_B2,b,5.0,7380,1,11269,typicality
19,0,encourage_X1,x,0.0,3720,1,11269,typicality
20,0,encourage_W3,w,5.0,3619,1,11269,typicality
21,0,encourage_A3,a,0.0,2355,1,11269,typicality
22,0,encourage_Z5,z,0.0,1073,1,11269,typicality
23,0,encourage_B1,b,0.0,751,1,11269,typicality
24,0,encourage_W1,w,4.0,2416,1,11269,typicality
25,0,encourage_X7,x,0.0,2158,1,11269,typicality
26,0,encourage_Z7,z,2.0,3279,1,11269,typicality
27,0,encourage_X3,x,2.0,993,1,11269,typicality
0,0,discourage_W4,w,0.9999999999999997,22982,2,11270,typicality
1,0,discourage_W3,w,2.0,7019,2,11270,typicality
2,0,discourage_Y4,y,11.0,5567,2,11270,typicality
3,0,discourage_A2,a,10.0,3243,2,11270,typicality
4,0,discourage_X3,x,4.0,3922,2,11270,typicality
5,0,discourage_B2,b,10.0,3010,2,11270,typicality
6,0,discourage_Y1,y,12.0,1724,2,11270,typicality
7,0,discourage_Z3,z,2.0,5267,2,11270,typicality
8,0,discourage_Y5,y,12.0,6983,2,11270,typicality
9,0,discourage_B1,b,10.0,2307,2,11270,typicality
10,0,discourage_Z7,z,0.0,2783,2,11270,typicality
11,0,discourage_W7,w,8.0,6929,2,11270,typicality
12,0,discourage_B3,b,4.0,2155,2,11270,typicality
13,0,discourage_Z4,z,0.0,2187,2,11270,typicality
14,0,discourage_B0,b,12.0,2498,2,11270,typicality
15,0,discourage_W1,w,4.0,2734,2,11270,typicality
16,0,discourage_A3,a,8.0,3415,2,11270,typicality
17,0,discourage_W5,w,5.0,3706,2,11270,typicality
18,0,discourage_A1,a,4.0,2270,2,11270,typicality
19,0,discourage_Z1,z,3.0,1801,2,11270,typicality
20,0,discourage_Y3,y,11.0,2503,2,11270,typicality
21,0,discourage_Y7,y,10.0,3570,2,11270,typicality
22,0,discourage_X1,x,0.9999999999999997,2730,2,11270,typicality
23,0,discourage_A0,a,2.0,2082,2,11270,typicality
24,0,discourage_X5,x,0.9999999999999997,2054,2,11270,typicality
25,0,discourage_X4,x,0.0,2147,2,11270,typicality
26,0,discourage_Z5,z,11.0,3743,2,11270,typicality
27,0,discourage_X7,x,0.0,2706,2,11270,typicality
0,0,encourage_Y4,y,13.0,16817,1,11271,typicality
1,0,encourage_Y5,y,13.0,2513,1,11271,typicality
2,0,encourage_Y1,y,13.0,2017,1,11271,typicality
3,0,encourage_Z7,z,0.0,3658,1,11271,typicality
4,0,encourage_X5,x,0.0,986,1,11271,typicality
5,0,encourage_W1,w,8.0,5962,1,11271,typicality
6,0,encourage_W4,w,5.0,2323,1,11271,typicality
7,0,encourage_X4,x,0.0,1682,1,11271,typicality
8,0,encourage_A2,a,0.0,2756,1,11271,typicality
9,0,encourage_Z3,z,0.0,905,1,11271,typicality
10,0,encourage_A1,a,0.0,1299,1,11271,typicality
11,0,encourage_A3,a,0.0,905,1,11271,typicality
12,0,encourage_Y3,y,13.0,3325,1,11271,typicality
13,0,encourage_Z4,z,0.0,3456,1,11271,typicality
14,0,encourage_W7,w,5.0,3419,1,11271,typicality
15,0,encourage_B3,b,8.0,3081,1,11271,typicality
16,0,encourage_A0,a,0.0,5228,1,11271,typicality
17,0,encourage_W3,w,6.0,3267,1,11271,typicality
18,0,encourage_X3,x,0.0,1363,1,11271,typicality
19,0,encourage_W5,w,8.0,3666,1,11271,typicality
20,0,encourage_B0,b,5.0,1771,1,11271,typicality
21,0,encourage_Y7,y,9.0,4172,1,11271,typicality
22,0,encourage_B1,b,0.0,2307,1,11271,typicality
23,0,encourage_Z1,z,0.0,4483,1,11271,typicality
24,0,encourage_B2,b,8.0,4840,1,11271,typicality
25,0,encourage_Z5,z,0.0,1554,1,11271,typicality
26,0,encourage_X1,x,0.0,2754,1,11271,typicality
27,0,encourage_X7,x,0.0,1000,1,11271,typicality
0,0,discourage_Z3,z,11.0,13175,2,11272,typicality
1,0,discourage_Y3,y,5.0,4952,2,11272,typicality
2,0,discourage_W3,w,8.0,5683,2,11272,typicality
3,0,discourage_A0,a,3.0,2783,2,11272,typicality
4,0,discourage_X7,x,3.0,1977,2,11272,typicality
5,0,discourage_B0,b,13.0,2557,2,11272,typicality
6,0,discourage_B1,b,13.0,1276,2,11272,typicality
7,0,discourage_B3,b,13.0,840,2,11272,typicality
8,0,discourage_Y5,y,4.0,2806,2,11272,typicality
9,0,discourage_A3,a,2.0,4067,2,11272,typicality
10,0,discourage_X4,x,6.0,4025,2,11272,typicality
11,0,discourage_B2,b,11.0,5490,2,11272,typicality
12,0,discourage_Z1,z,2.0,3086,2,11272,typicality
13,0,discourage_A2,a,2.0,3019,2,11272,typicality
14,0,discourage_W7,w,5.0,7537,2,11272,typicality
15,0,discourage_W1,w,5.0,1810,2,11272,typicality
16,0,discourage_Y7,y,3.0,2007,2,11272,typicality
17,0,discourage_X5,x,11.0,2685,2,11272,typicality
18,0,discourage_X1,x,10.0,7469,2,11272,typicality
19,0,discourage_W5,w,0.0,3708,2,11272,typicality
20,0,discourage_X3,x,5.0,3450,2,11272,typicality
21,0,discourage_W4,w,5.0,2401,2,11272,typicality
22,0,discourage_Y1,y,10.0,7050,2,11272,typicality
23,0,discourage_Z7,z,3.0,4363,2,11272,typicality
24,0,discourage_Z4,z,3.0,652,2,11272,typicality
25,0,discourage_Z5,z,3.0,488,2,11272,typicality
26,0,discourage_Y4,y,3.0,909,2,11272,typicality
27,0,discourage_A1,a,6.0,9303,2,11272,typicality
0,0,encourage_W1,w,13.0,9792,1,11273,typicality
1,0,encourage_Y5,y,13.0,2125,1,11273,typicality
2,0,encourage_Y4,y,13.0,1970,1,11273,typicality
3,0,encourage_X4,x,2.0,3950,1,11273,typicality
4,0,encourage_B0,b,8.0,7896,1,11273,typicality
5,0,encourage_B2,b,10.0,4563,1,11273,typicality
6,0,encourage_W5,w,6.0,3025,1,11273,typicality
7,0,encourage_Z4,z,0.0,4808,1,11273,typicality
8,0,encourage_Z5,z,0.0,1221,1,11273,typicality
9,0,encourage_Y1,y,13.0,5740,1,11273,typicality
10,0,encourage_Y7,y,13.0,1092,1,11273,typicality
11,0,encourage_B3,b,13.0,752,1,11273,typicality
12,0,encourage_A3,a,3.0,4569,1,11273,typicality
13,0,encourage_A1,a,3.0,1319,1,11273,typicality
14,0,encourage_W4,w,7.0,3179,1,11273,typicality
15,0,encourage_W7,w,7.0,1354,1,11273,typicality
16,0,encourage_A0,a,6.0,2019,1,11273,typicality
17,0,encourage_Z1,z,2.0,3255,1,11273,typicality
18,0,encourage_X7,x,2.0,726,1,11273,typicality
19,0,encourage_B1,b,6.0,4055,1,11273,typicality
20,0,encourage_X1,x,0.0,3258,1,11273,typicality
21,0,encourage_X5,x,0.0,753,1,11273,typicality
22,0,encourage_X3,x,0.0,1233,1,11273,typicality
23,0,encourage_W3,w,6.0,4046,1,11273,typicality
24,0,encourage_Z3,z,13.0,2410,1,11273,typicality
25,0,encourage_Z7,z,13.0,555,1,11273,typicality
26,0,encourage_Y3,y,13.0,4882,1,11273,typicality
27,0,encourage_A2,a,0.0,2933,1,11273,typicality
0,0,discourage_Z1,z,9.0,17426,2,11274,typicality
1,0,discourage_W4,w,0.0,2516,2,11274,typicality
2,0,discourage_W5,w,0.0,1825,2,11274,typicality
3,0,discourage_B2,b,2.0,3285,2,11274,typicality
4,0,discourage_Y4,y,13.0,3505,2,11274,typicality
5,0,discourage_W7,w,0.0,4834,2,11274,typicality
6,0,discourage_X4,x,0.0,1226,2,11274,typicality
7,0,discourage_A0,a,0.0,830,2,11274,typicality
8,0,discourage_Y3,y,13.0,3106,2,11274,typicality
9,0,discourage_Z7,z,5.0,4298,2,11274,typicality
10,0,discourage_Z5,z,5.0,1043,2,11274,typicality
11,0,discourage_Y5,y,13.0,2115,2,11274,typicality
12,0,discourage_Y1,y,13.0,2459,2,11274,typicality
13,0,discourage_X3,x,0.0,3898,2,11274,typicality
14,0,discourage_X1,x,0.0,727,2,11274,typicality
15,0,discourage_Z3,z,13.0,2442,2,11274,typicality
16,0,discourage_A2,a,3.0,5289,2,11274,typicality
17,0,discourage_Y7,y,12.0,2603,2,11274,typicality
18,0,discourage_A1,a,0.0,2411,2,11274,typicality
19,0,discourage_W3,w,0.0,795,2,11274,typicality
20,0,discourage_Z4,z,13.0,2145,2,11274,typicality
21,0,discourage_B1,b,8.0,5909,2,11274,typicality
22,0,discourage_W1,w,0.0,2010,2,11274,typicality
23,0,discourage_B0,b,4.0,4779,2,11274,typicality
24,0,discourage_B3,b,5.0,8768,2,11274,typicality
25,0,discourage_A3,a,5.0,861,2,11274,typicality
26,0,discourage_X5,x,0.0,2044,2,11274,typicality
27,0,discourage_X7,x,0.0,843,2,11274,typicality
0,0,encourage_W7,w,3.0,16321,1,11275,typicality
1,0,encourage_X3,x,0.9999999999999997,5275,1,11275,typicality
2,0,encourage_A3,a,0.9999999999999997,1666,1,11275,typicality
3,0,encourage_B1,b,3.0,9538,1,11275,typicality
4,0,encourage_Z7,z,0.9999999999999997,2458,1,11275,typicality
5,0,encourage_W4,w,4.0,2878,1,11275,typicality
6,0,encourage_A0,a,3.0,2426,1,11275,typicality
7,0,encourage_Y7,y,11.0,4766,1,11275,typicality
8,0,encourage_X4,x,0.9999999999999997,2389,1,11275,typicality
9,0,encourage_X7,x,0.9999999999999997,1154,1,11275,typicality
10,0,encourage_Y3,y,11.0,2482,1,11275,typicality
11,0,encourage_W1,w,4.0,2456,1,11275,typicality
12,0,encourage_Z3,z,0.9999999999999997,2209,1,11275,typicality
13,0,encourage_B0,b,9.0,3933,1,11275,typicality
14,0,encourage_B3,b,9.0,790,1,11275,typicality
15,0,encourage_W3,w,3.0,2432,1,11275,typicality
16,0,encourage_Y1,y,11.0,2523,1,11275,typicality
17,0,encourage_Z5,z,0.0,3740,1,11275,typicality
18,0,encourage_B2,b,11.0,3987,1,11275,typicality
19,0,encourage_Y4,y,13.0,2396,1,11275,typicality
20,0,encourage_X1,x,0.0,2195,1,11275,typicality
21,0,encourage_X5,x,0.0,523,1,11275,typicality
22,0,encourage_Z1,z,0.0,3886,1,11275,typicality
23,0,encourage_Y5,y,12.0,2599,1,11275,typicality
24,0,encourage_A1,a,3.0,2175,1,11275,typicality
25,0,encourage_Z4,z,0.0,2174,1,11275,typicality
26,0,encourage_A2,a,0.0,637,1,11275,typicality
27,0,encourage_W5,w,2.0,2099,1,11275,typicality
0,0,discourage_A0,a,2.0,24134,2,11276,typicality
1,0,discourage_W3,w,10.0,14290,2,11276,typicality
2,0,discourage_X7,x,0.0,3501,2,11276,typicality
3,0,discourage_A1,a,0.0,2292,2,11276,typicality
4,0,discourage_Y3,y,13.0,4623,2,11276,typicality
5,0,discourage_Y4,y,13.0,3276,2,11276,typicality
6,0,discourage_W4,w,2.0,12596,2,11276,typicality
7,0,discourage_W1,w,2.0,4358,2,11276,typicality
8,0,discourage_B1,b,0.0,2755,2,11276,typicality
9,0,discourage_Z4,z,0.0,1219,2,11276,typicality
10,0,discourage_Z7,z,0.0,1276,2,11276,typicality
11,0,discourage_B3,b,0.0,1111,2,11276,typicality
12,0,discourage_X5,x,0.0,1074,2,11276,typicality
13,0,discourage_Z1,z,0.0,2230,2,11276,typicality
14,0,discourage_B0,b,0.9999999999999997,4076,2,11276,typicality
15,0,discourage_A2,a,0.9999999999999997,3149,2,11276,typicality
16,0,discourage_W7,w,2.0,5171,2,11276,typicality
17,0,discourage_Z3,z,0.0,8594,2,11276,typicality
18,0,discourage_Y5,y,11.0,4148,2,11276,typicality
19,0,discourage_X4,x,0.0,2966,2,11276,typicality
20,0,discourage_Z5,z,0.0,2059,2,11276,typicality
21,0,discourage_A3,a,0.0,1550,2,11276,typicality
22,0,discourage_Y1,y,12.0,4416,2,11276,typicality
23,0,discourage_B2,b,4.0,9355,2,11276,typicality
24,0,discourage_Y7,y,13.0,5620,2,11276,typicality
25,0,discourage_X3,x,0.0,6113,2,11276,typicality
26,0,discourage_W5,w,2.0,4439,2,11276,typicality
27,0,discourage_X1,x,0.0,2491,2,11276,typicality
0,0,encourage_Z5,z,0.0,14823,1,11277,typicality
1,0,encourage_W5,w,0.0,3482,1,11277,typicality
2,0,encourage_Z1,z,0.0,1329,1,11277,typicality
3,0,encourage_A0,a,0.0,732,1,11277,typicality
4,0,encourage_X1,x,0.0,742,1,11277,typicality
5,0,encourage_Y4,y,13.0,5071,1,11277,typicality
6,0,encourage_B2,b,13.0,1925,1,11277,typicality
7,0,encourage_Y7,y,13.0,1581,1,11277,typicality
8,0,encourage_Y3,y,13.0,1519,1,11277,typicality
9,0,encourage_Z7,z,0.0,3613,1,11277,typicality
10,0,encourage_X7,x,0.0,781,1,11277,typicality
11,0,encourage_B1,b,0.0,683,1,11277,typicality
12,0,encourage_Z3,z,0.0,602,1,11277,typicality
13,0,encourage_Y5,y,13.0,6101,1,11277,typicality
14,0,encourage_W3,w,3.0,3639,1,11277,typicality
15,0,encourage_B3,b,0.0,3346,1,11277,typicality
16,0,encourage_Y1,y,13.0,3010,1,11277,typicality
17,0,encourage_W4,w,0.0,3747,1,11277,typicality
18,0,encourage_W1,w,0.0,880,1,11277,typicality
19,0,encourage_X5,x,0.0,682,1,11277,typicality
20,0,encourage_A3,a,0.0,949,1,11277,typicality
21,0,encourage_Z4,z,0.0,498,1,11277,typicality
22,0,encourage_X3,x,0.0,859,1,11277,typicality
23,0,encourage_A1,a,0.0,525,1,11277,typicality
24,0,encourage_B0,b,0.0,969,1,11277,typicality
25,0,encourage_X4,x,0.0,615,1,11277,typicality
26,0,encourage_A2,a,0.0,848,1,11277,typicality
27,0,encourage_W7,w,0.0,618,1,11277,typicality
0,0,discourage_Y1,y,4.0,8273,2,11278,typicality
1,0,discourage_Y3,y,6.0,7362,2,11278,typicality
2,0,discourage_B0,b,3.0,5323,2,11278,typicality
3,0,discourage_Y7,y,6.0,3170,2,11278,typicality
4,0,discourage_Z3,z,13.0,4117,2,11278,typicality
5,0,discourage_B2,b,4.0,2834,2,11278,typicality
6,0,discourage_Y5,y,6.0,3226,2,11278,typicality
7,0,discourage_W1,w,2.0,5355,2,11278,typicality
8,0,discourage_Z5,z,0.9999999999999997,5074,2,11278,typicality
9,0,discourage_W7,w,2.0,2159,2,11278,typicality
10,0,discourage_X7,x,13.0,3115,2,11278,typicality
11,0,discourage_Y4,y,0.9999999999999997,3448,2,11278,typicality
12,0,discourage_Z1,z,10.0,2489,2,11278,typicality
13,0,discourage_X3,x,4.0,2586,2,11278,typicality
14,0,discourage_X5,x,13.0,2543,2,11278,typicality
15,0,discourage_W5,w,9.0,1904,2,11278,typicality
16,0,discourage_A0,a,8.0,2315,2,11278,typicality
17,0,discourage_A3,a,0.0,2956,2,11278,typicality
18,0,discourage_A1,a,6.0,2754,2,11278,typicality
19,0,discourage_X4,x,7.0,1674,2,11278,typicality
20,0,discourage_B1,b,4.0,2452,2,11278,typicality
21,0,discourage_A2,a,0.9999999999999997,2416,2,11278,typicality
22,0,discourage_Z7,z,7.0,4027,2,11278,typicality
23,0,discourage_W3,w,10.0,1851,2,11278,typicality
24,0,discourage_W4,w,3.0,2747,2,11278,typicality
25,0,discourage_B3,b,8.0,2379,2,11278,typicality
26,0,discourage_X1,x,13.0,3475,2,11278,typicality
27,0,discourage_Z4,z,8.0,2642,2,11278,typicality
0,0,encourage_X1,x,0.0,8247,1,11279,typicality
1,0,encourage_A2,a,0.0,2170,1,11279,typicality
2,0,encourage_B1,b,0.0,6314,1,11279,typicality
3,0,encourage_X5,x,0.0,1311,1,11279,typicality
4,0,encourage_Y7,y,13.0,3090,1,11279,typicality
5,0,encourage_Y1,y,13.0,805,1,11279,typicality
6,0,encourage_W3,w,8.0,6668,1,11279,typicality
7,0,encourage_W5,w,0.0,2883,1,11279,typicality
8,0,encourage_X4,x,0.0,1355,1,11279,typicality
9,0,encourage_X7,x,0.0,511,1,11279,typicality
10,0,encourage_W1,w,0.0,838,1,11279,typicality
11,0,encourage_B0,b,5.0,3828,1,11279,typicality
12,0,encourage_B2,b,8.0,2707,1,11279,typicality
13,0,encourage_Y3,y,13.0,2219,1,11279,typicality
14,0,encourage_B3,b,13.0,1098,1,11279,typicality
15,0,encourage_A3,a,0.0,3557,1,11279,typicality
16,0,encourage_Z4,z,0.0,641,1,11279,typicality
17,0,encourage_A0,a,0.0,1203,1,11279,typicality
18,0,encourage_W7,w,0.0,1004,1,11279,typicality
19,0,encourage_Y5,y,13.0,2175,1,11279,typicality
20,0,encourage_W4,w,0.0,2467,1,11279,typicality
21,0,encourage_Z1,z,0.0,1467,1,11279,typicality
22,0,encourage_X3,x,0.0,1102,1,11279,typicality
23,0,encourage_Z5,z,0.0,636,1,11279,typicality
24,0,encourage_Y4,y,13.0,2279,1,11279,typicality
25,0,encourage_A1,a,0.0,2404,1,11279,typicality
26,0,encourage_Z3,z,0.0,1291,1,11279,typicality
27,0,encourage_Z7,z,0.0,609,1,11279,typicality
0,0,discourage_X5,x,0.9999999999999997,17231,2,11280,typicality
1,0,discourage_B0,b,0.9999999999999997,4770,2,11280,typicality
2,0,discourage_B2,b,0.9999999999999997,1586,2,11280,typicality
3,0,discourage_A3,a,0.9999999999999997,770,2,11280,typicality
4,0,discourage_A2,a,0.9999999999999997,759,2,11280,typicality
5,0,discourage_Z1,z,0.9999999999999997,615,2,11280,typicality
6,0,discourage_Y5,y,11.0,7648,2,11280,typicality
7,0,discourage_B1,b,11.0,1993,2,11280,typicality
8,0,discourage_X4,x,0.9999999999999997,2561,2,11280,typicality
9,0,discourage_W3,w,0.9999999999999997,1042,2,11280,typicality
10,0,discourage_Z4,z,0.9999999999999997,1101,2,11280,typicality
11,0,discourage_W4,w,0.9999999999999997,552,2,11280,typicality
12,0,discourage_W7,w,0.9999999999999997,449,2,11280,typicality
13,0,discourage_Z7,z,0.9999999999999997,1523,2,11280,typicality
14,0,discourage_Z5,z,0.9999999999999997,545,2,11280,typicality
15,0,discourage_X7,x,0.9999999999999997,549,2,11280,typicality
16,0,discourage_A0,a,0.9999999999999997,426,2,11280,typicality
17,0,discourage_Y3,y,11.0,3940,2,11280,typicality
18,0,discourage_X3,x,0.9999999999999997,3567,2,11280,typicality
19,0,discourage_Y1,y,11.0,3115,2,11280,typicality
20,0,discourage_B3,b,11.0,1471,2,11280,typicality
21,0,discourage_A1,a,2.0,2482,2,11280,typicality
22,0,discourage_X1,x,2.0,588,2,11280,typicality
23,0,discourage_Y4,y,11.0,3202,2,11280,typicality
24,0,discourage_Z3,z,11.0,797,2,11280,typicality
25,0,discourage_W1,w,2.0,2026,2,11280,typicality
26,0,discourage_W5,w,2.0,971,2,11280,typicality
27,0,discourage_Y7,y,11.0,2064,2,11280,typicality
0,0,encourage_A0,a,3.0,8604,1,11281,typicality
1,0,encourage_A3,a,2.0,4227,1,11281,typicality
2,0,encourage_Y3,y,11.0,3839,1,11281,typicality
3,0,encourage_X4,x,0.9999999999999997,2868,1,11281,typicality
4,0,encourage_Z1,z,2.0,3185,1,11281,typicality
5,0,encourage_Z7,z,2.0,1560,1,11281,typicality
6,0,encourage_Z4,z,2.0,1217,1,11281,typicality
7,0,encourage_W5,w,5.0,3538,1,11281,typicality
8,0,encourage_X7,x,0.9999999999999997,5946,1,11281,typicality
9,0,encourage_Y4,y,12.0,6914,1,11281,typicality
10,0,encourage_B2,b,9.0,3761,1,11281,typicality
11,0,encourage_Z5,z,4.0,5167,1,11281,typicality
12,0,encourage_A1,a,4.0,2969,1,11281,typicality
13,0,encourage_Y7,y,11.0,7466,1,11281,typicality
14,0,encourage_Y1,y,13.0,5436,1,11281,typicality
15,0,encourage_W7,w,4.0,3214,1,11281,typicality
16,0,encourage_B0,b,4.0,3622,1,11281,typicality
17,0,encourage_Z3,z,3.0,3388,1,11281,typicality
18,0,encourage_X5,x,0.0,2635,1,11281,typicality
19,0,encourage_X3,x,0.0,1960,1,11281,typicality
20,0,encourage_W1,w,4.0,3624,1,11281,typicality
21,0,encourage_Y5,y,9.0,2453,1,11281,typicality
22,0,encourage_W3,w,4.0,2785,1,11281,typicality
23,0,encourage_A2,a,2.0,2113,1,11281,typicality
24,0,encourage_B1,b,3.0,2283,1,11281,typicality
25,0,encourage_B3,b,10.0,2815,1,11281,typicality
26,0,encourage_W4,w,4.0,1951,1,11281,typicality
27,0,encourage_X1,x,0.0,2401,1,11281,typicality
0,0,discourage_W3,w,0.0,7478,2,11282,typicality
1,0,discourage_A2,a,3.0,4600,2,11282,typicality
2,0,discourage_Y5,y,13.0,1830,2,11282,typicality
3,0,discourage_B0,b,11.0,2145,2,11282,typicality
4,0,discourage_W1,w,0.0,2291,2,11282,typicality
5,0,discourage_A3,a,0.0,1038,2,11282,typicality
6,0,discourage_X4,x,0.0,1225,2,11282,typicality
7,0,discourage_Y1,y,13.0,2043,2,11282,typicality
8,0,discourage_W5,w,0.0,2463,2,11282,typicality
9,0,discourage_X1,x,0.0,828,2,11282,typicality
10,0,discourage_Z5,z,0.0,819,2,11282,typicality
11,0,discourage_Y7,y,7.0,2858,2,11282,typicality
12,0,discourage_B2,b,4.0,3983,2,11282,typicality
13,0,discourage_W4,w,0.0,1642,2,11282,typicality
14,0,discourage_B1,b,8.0,2267,2,11282,typicality
15,0,discourage_Z3,z,0.0,2629,2,11282,typicality
16,0,discourage_X7,x,0.0,714,2,11282,typicality
17,0,discourage_Y3,y,13.0,2393,2,11282,typicality
18,0,discourage_A1,a,0.0,2294,2,11282,typicality
19,0,discourage_Z4,z,0.0,739,2,11282,typicality
20,0,discourage_Z1,z,0.0,802,2,11282,typicality
21,0,discourage_Z7,z,0.0,714,2,11282,typicality
22,0,discourage_B3,b,3.0,2908,2,11282,typicality
23,0,discourage_A0,a,0.0,1803,2,11282,typicality
24,0,discourage_Y4,y,13.0,1957,2,11282,typicality
25,0,discourage_W7,w,0.0,2061,2,11282,typicality
26,0,discourage_X3,x,0.0,635,2,11282,typicality
27,0,discourage_X5,x,0.0,504,2,11282,typicality
0,0,encourage_B2,b,8.0,20122,1,11283,typicality
1,0,encourage_X4,x,0.0,6641,1,11283,typicality
2,0,encourage_Z1,z,2.0,5498,1,11283,typicality
3,0,encourage_W3,w,3.0,4370,1,11283,typicality
4,0,encourage_B1,b,5.0,9411,1,11283,typicality
5,0,encourage_X1,x,0.9999999999999997,4235,1,11283,typicality
6,0,encourage_X5,x,0.0,2239,1,11283,typicality
7,0,encourage_A0,a,2.0,6004,1,11283,typicality
8,0,encourage_A1,a,2.0,3962,1,11283,typicality
9,0,encourage_Y7,y,12.0,7508,1,11283,typicality
10,0,encourage_W1,w,4.0,8115,1,11283,typicality
11,0,encourage_Y3,y,12.0,6026,1,11283,typicality
12,0,encourage_X3,x,0.9999999999999997,6010,1,11283,typicality
13,0,encourage_W4,w,4.0,3538,1,11283,typicality
14,0,encourage_B0,b,6.0,11691,1,11283,typicality
15,0,encourage_Z7,z,3.0,7066,1,11283,typicality
16,0,encourage_B3,b,10.0,4195,1,11283,typicality
17,0,encourage_A2,a,3.0,3699,1,11283,typicality
18,0,encourage_Z3,z,3.0,9086,1,11283,typicality
19,0,encourage_X7,x,0.0,1914,1,11283,typicality
20,0,encourage_W5,w,2.0,3163,1,11283,typicality
21,0,encourage_Y4,y,13.0,2946,1,11283,typicality
22,0,encourage_Z4,z,3.0,3906,1,11283,typicality
23,0,encourage_Y1,y,13.0,3116,1,11283,typicality
24,0,encourage_A3,a,2.0,7178,1,11283,typicality
25,0,encourage_W7,w,0.9999999999999997,3347,1,11283,typicality
26,0,encourage_Z5,z,2.0,4995,1,11283,typicality
27,0,encourage_Y5,y,12.0,4659,1,11283,typicality
0,0,discourage_W4,w,9.0,15960,2,11284,typicality
1,0,discourage_Z7,z,2.0,5809,2,11284,typicality
2,0,discourage_W5,w,3.0,4413,2,11284,typicality
3,0,discourage_B3,b,11.0,2802,2,11284,typicality
4,0,discourage_B1,b,10.0,2778,2,11284,typicality
5,0,discourage_Y3,y,3.0,4176,2,11284,typicality
6,0,discourage_A3,a,0.0,5025,2,11284,typicality
7,0,discourage_Z1,z,0.9999999999999997,3789,2,11284,typicality
8,0,discourage_B2,b,4.0,2185,2,11284,typicality
9,0,discourage_W3,w,11.0,5442,2,11284,typicality
10,0,discourage_X4,x,13.0,2730,2,11284,typicality
11,0,discourage_A1,a,12.0,3578,2,11284,typicality
12,0,discourage_W1,w,8.0,2323,2,11284,typicality
13,0,discourage_X1,x,13.0,3858,2,11284,typicality
14,0,discourage_Z4,z,2.0,2967,2,11284,typicality
15,0,discourage_Y4,y,5.0,2723,2,11284,typicality
16,0,discourage_Y1,y,5.0,1667,2,11284,typicality
17,0,discourage_Y5,y,4.0,1666,2,11284,typicality
18,0,discourage_B0,b,3.0,2219,2,11284,typicality
19,0,discourage_A0,a,2.0,2047,2,11284,typicality
20,0,discourage_A2,a,0.9999999999999997,2114,2,11284,typicality
21,0,discourage_Z5,z,0.9999999999999997,1227,2,11284,typicality
22,0,discourage_X3,x,0.0,1896,2,11284,typicality
23,0,discourage_W7,w,4.0,3419,2,11284,typicality
24,0,discourage_X7,x,0.0,2004,2,11284,typicality
25,0,discourage_Y7,y,11.0,2235,2,11284,typicality
26,0,discourage_X5,x,4.0,2124,2,11284,typicality
27,0,discourage_Z3,z,12.0,2155,2,11284,typicality
0,0,neutral_W5,w,4.0,43071,3,11220,typicality
1,0,neutral_Z3,z,10.0,5514,3,11220,typicality
2,0,neutral_A2,a,4.0,8250,3,11220,typicality
3,0,neutral_A1,a,9.0,6175,3,11220,typicality
4,0,neutral_Y5,y,10.0,3075,3,11220,typicality
5,0,neutral_X1,x,2.0,3354,3,11220,typicality
6,0,neutral_Y3,y,11.0,3459,3,11220,typicality
7,0,neutral_W4,w,10.0,7825,3,11220,typicality
8,0,neutral_X7,x,2.0,3162,3,11220,typicality
9,0,neutral_X5,x,2.0,1457,3,11220,typicality
10,0,neutral_A3,a,11.0,2218,3,11220,typicality
11,0,neutral_Z7,z,11.0,1394,3,11220,typicality
12,0,neutral_B0,b,8.0,3477,3,11220,typicality
13,0,neutral_W3,w,7.0,11476,3,11220,typicality
14,0,neutral_A0,a,3.0,5025,3,11220,typicality
15,0,neutral_X4,x,2.0,2299,3,11220,typicality
16,0,neutral_B3,b,10.0,3379,3,11220,typicality
17,0,neutral_W1,w,9.0,7667,3,11220,typicality
18,0,neutral_Y7,y,10.0,2243,3,11220,typicality
19,0,neutral_Y1,y,10.0,1187,3,11220,typicality
20,0,neutral_Y4,y,10.0,850,3,11220,typicality
21,0,neutral_X3,x,4.0,2210,3,11220,typicality
22,0,neutral_Z5,z,9.0,2987,3,11220,typicality
23,0,neutral_Z1,z,9.0,1284,3,11220,typicality
24,0,neutral_Z4,z,9.0,907,3,11220,typicality
25,0,neutral_W7,w,4.0,3547,3,11220,typicality
26,0,neutral_B2,b,9.0,2706,3,11220,typicality
27,0,neutral_B1,b,9.0,1474,3,11220,typicality
0,0,neutral_Y1,y,8.0,28976,3,11221,typicality
1,0,neutral_Z7,z,5.0,5218,3,11221,typicality
2,0,neutral_Z5,z,5.0,3379,3,11221,typicality
3,0,neutral_A1,a,2.0,6193,3,11221,typicality
4,0,neutral_B3,b,13.0,4208,3,11221,typicality
5,0,neutral_W5,w,4.0,3060,3,11221,typicality
6,0,neutral_W7,w,4.0,1679,3,11221,typicality
7,0,neutral_B0,b,13.0,3608,3,11221,typicality
8,0,neutral_Z3,z,5.0,3770,3,11221,typicality
9,0,neutral_X4,x,7.0,5929,3,11221,typicality
10,0,neutral_X1,x,7.0,1874,3,11221,typicality
11,0,neutral_Y5,y,7.0,3994,3,11221,typicality
12,0,neutral_Y7,y,7.0,1285,3,11221,typicality
13,0,neutral_Z4,z,6.0,6437,3,11221,typicality
14,0,neutral_A2,a,5.0,4236,3,11221,typicality
15,0,neutral_A0,a,0.9999999999999997,5464,3,11221,typicality
16,0,neutral_B1,b,13.0,2948,3,11221,typicality
17,0,neutral_X3,x,7.0,4058,3,11221,typicality
18,0,neutral_W1,w,6.0,11296,3,11221,typicality
19,0,neutral_Y3,y,7.0,2206,3,11221,typicality
20,0,neutral_W3,w,6.0,2638,3,11221,typicality
21,0,neutral_A3,a,2.0,5920,3,11221,typicality
22,0,neutral_Z1,z,4.0,3178,3,11221,typicality
23,0,neutral_Y4,y,7.0,3570,3,11221,typicality
24,0,neutral_X7,x,5.0,3162,3,11221,typicality
25,0,neutral_B2,b,13.0,2601,3,11221,typicality
26,0,neutral_W4,w,4.0,4193,3,11221,typicality
27,0,neutral_X5,x,7.0,3730,3,11221,typicality
0,0,neutral_B3,b,4.0,6532,3,11222,typicality
1,0,neutral_B1,b,8.0,4642,3,11222,typicality
2,0,neutral_W1,w,4.0,2488,3,11222,typicality
3,0,neutral_Y4,y,4.0,1291,3,11222,typicality
4,0,neutral_Y3,y,4.0,1074,3,11222,typicality
5,0,neutral_X4,x,2.0,2170,3,11222,typicality
6,0,neutral_Z1,z,0.9999999999999997,4027,3,11222,typicality
7,0,neutral_A1,a,0.9999999999999997,915,3,11222,typicality
8,0,neutral_X3,x,0.0,1898,3,11222,typicality
9,0,neutral_Z5,z,0.0,370,3,11222,typicality
10,0,neutral_W4,w,5.0,3321,3,11222,typicality
11,0,neutral_Y5,y,5.0,969,3,11222,typicality
12,0,neutral_Y7,y,11.0,2354,3,11222,typicality
13,0,neutral_Y1,y,6.0,3152,3,11222,typicality
14,0,neutral_Z4,z,2.0,1832,3,11222,typicality
15,0,neutral_A3,a,2.0,2064,3,11222,typicality
16,0,neutral_X5,x,0.0,2076,3,11222,typicality
17,0,neutral_W3,w,0.0,1346,3,11222,typicality
18,0,neutral_B0,b,4.0,6865,3,11222,typicality
19,0,neutral_X1,x,4.0,1508,3,11222,typicality
20,0,neutral_W7,w,3.0,2801,3,11222,typicality
21,0,neutral_Z3,z,0.0,1745,3,11222,typicality
22,0,neutral_A2,a,0.0,930,3,11222,typicality
23,0,neutral_W5,w,4.0,2898,3,11222,typicality
24,0,neutral_Z7,z,0.9999999999999997,2187,3,11222,typicality
25,0,neutral_A0,a,0.9999999999999997,1561,3,11222,typicality
26,0,neutral_B2,b,0.9999999999999997,1227,3,11222,typicality
27,0,neutral_X7,x,0.9999999999999997,875,3,11222,typicality
0,0,encourage_Y5,y,13.0,7954,1,11223,typicality
1,0,encourage_B3,b,11.0,1985,1,11223,typicality
2,0,encourage_W5,w,5.0,3571,1,11223,typicality
3,0,encourage_Z5,z,3.0,2034,1,11223,typicality
4,0,encourage_Y3,y,13.0,2994,1,11223,typicality
5,0,encourage_Z3,z,5.0,3242,1,11223,typicality
6,0,encourage_Z1,z,5.0,2066,1,11223,typicality
7,0,encourage_Z7,z,5.0,1834,1,11223,typicality
8,0,encourage_A1,a,4.0,2066,1,11223,typicality
9,0,encourage_W4,w,5.0,2115,1,11223,typicality
10,0,encourage_X1,x,3.0,1993,1,11223,typicality
11,0,encourage_Y1,y,13.0,2571,1,11223,typicality
12,0,encourage_Y7,y,10.0,2410,1,11223,typicality
13,0,encourage_X3,x,2.0,3794,1,11223,typicality
14,0,encourage_W1,w,5.0,2073,1,11223,typicality
15,0,encourage_A3,a,4.0,2315,1,11223,typicality
16,0,encourage_B2,b,4.0,1939,1,11223,typicality
17,0,encourage_B0,b,4.0,1874,1,11223,typicality
18,0,encourage_Y4,y,12.0,2396,1,11223,typicality
19,0,encourage_Z4,z,5.0,2627,1,11223,typicality
20,0,encourage_A0,a,2.0,3057,1,11223,typicality
21,0,encourage_A2,a,2.0,3324,1,11223,typicality
22,0,encourage_W7,w,2.0,1474,1,11223,typicality
23,0,encourage_B1,b,3.0,2804,1,11223,typicality
24,0,encourage_W3,w,4.0,2170,1,11223,typicality
25,0,encourage_X5,x,0.0,1907,1,11223,typicality
26,0,encourage_X4,x,0.0,1035,1,11223,typicality
27,0,encourage_X7,x,0.0,631,1,11223,typicality
0,0,neutral_X7,x,4.0,18388,3,11224,typicality
1,0,neutral_W7,w,4.0,3177,3,11224,typicality
2,0,neutral_Z4,z,2.0,11936,3,11224,typicality
3,0,neutral_Y3,y,4.0,4248,3,11224,typicality
4,0,neutral_Z1,z,2.0,2739,3,11224,typicality
5,0,neutral_X5,x,2.0,1589,3,11224,typicality
6,0,neutral_A2,a,2.0,726,3,11224,typicality
7,0,neutral_X1,x,2.0,2289,3,11224,typicality
8,0,neutral_X4,x,2.0,2126,3,11224,typicality
9,0,neutral_Y5,y,4.0,2661,3,11224,typicality
10,0,neutral_Y4,y,4.0,1347,3,11224,typicality
11,0,neutral_Z5,z,2.0,2537,3,11224,typicality
12,0,neutral_A0,a,2.0,3515,3,11224,typicality
13,0,neutral_W4,w,4.0,2726,3,11224,typicality
14,0,neutral_Z7,z,2.0,3758,3,11224,typicality
15,0,neutral_X3,x,2.0,1039,3,11224,typicality
16,0,neutral_B2,b,7.0,4688,3,11224,typicality
17,0,neutral_Y1,y,10.0,5605,3,11224,typicality
18,0,neutral_A3,a,3.0,3427,3,11224,typicality
19,0,neutral_B1,b,8.0,4107,3,11224,typicality
20,0,neutral_B0,b,9.0,2060,3,11224,typicality
21,0,neutral_Z3,z,4.0,2538,3,11224,typicality
22,0,neutral_A1,a,3.0,2945,3,11224,typicality
23,0,neutral_W5,w,4.0,3466,3,11224,typicality
24,0,neutral_W1,w,4.0,2508,3,11224,typicality
25,0,neutral_W3,w,4.0,1146,3,11224,typicality
26,0,neutral_B3,b,3.0,3320,3,11224,typicality
27,0,neutral_Y7,y,3.0,5402,3,11224,typicality
